,Index,Subject,Block,Trial,TrialType,LeftContext,RightContext,LeftItem,RightItem,LeftRank,RightRank,D_Ranks,LeftValue,RightValue,D_Value,Choice,Correct,ChoiceRT,ITI,LeftTragetLoc,RightTragetLoc,LeftContext1,LeftContext2,RightContext1,RightContext2,att,LeftContext1_val,LeftContext2_val,RightContext1_val,RightContext2_val
0,1,201,1,1,hh,High,High,Heat_Blower,Melon_Cutter,43,38,5,21.1,18.2,2.9,1,1,582.97,930.17,2,1,Pan,Popcorn_Machine,Pan,Whiskey,0,28.9,30,28.9,30
1,2,201,1,2,ll,Low,Low,Scale_Kitchen,Melon_Cutter,29,38,-9,15.77,18.2,-2.43,2,1,333.12,970.01,2,2,Flashlight,Gold_USB,Newton_Cradle,Chocolate,0,3.8,0.5,1.333333333,1.7
2,3,201,1,3,Hh,High,Low,Chef_Knife,Matress_Folded,34,27,7,17.6,15,2.6,2,0,483.13,1124.1,1,2,Pan,White_Wine,Gold_USB,Stormtrooper_USB,0,28.9,29.96666667,0.5,3.366666667
3,4,201,1,4,Hl,Low,High,Picnic_Cooler,Body_Scale,36,23,13,17.73,10.7,7.03,1,1,866.31,803.14,1,2,Pointer,Chocolate,Popcorn_Machine,Computer_Tray,0,0.733333333,1.7,30,29.1
4,5,201,1,5,Hh,High,Low,Head_Lamp,Battery,15,9,6,6.9,4,2.9,1,1,549.19,1078.39,3,3,Computer_Tray,White_Wine,Pointer,Stormtrooper_USB,0,29.1,29.96666667,0.733333333,3.366666667
5,6,201,1,6,Hh,Low,High,Box_Pig,Iron,40,46,-6,19,24.47,-5.47,2,1,466.38,1108.91,3,3,Pizza,Newton_Cradle,Computer_Tray,Whiskey,0,2.166666667,1.333333333,29.1,30
6,7,201,1,7,Hh,High,Low,Table_Lamp,Calculator,39,22,17,18.8,10.33,8.47,2,0,533.4,846.57,1,2,Popcorn_Machine,Pan,Pizza,Pointer,0,30,28.9,2.166666667,0.733333333
7,8,201,1,8,Hl,Low,High,Toaster,Kettle,47,21,26,25.5,10.07,15.43,1,1,749.73,880.77,2,1,Pointer,Pizza,Sushi_Kit,Popcorn_Machine,0,0.733333333,2.166666667,30,30
8,9,201,1,9,Hh,High,Low,Women_Hairblower,Kinder,30,10,20,16.2,4.63,11.57,1,1,333.17,1109.23,3,1,White_Wine,Popcorn_Machine,Flashlight,Pointer,0,29.96666667,30,3.8,0.733333333
9,10,201,1,10,hh,High,High,Kinder,Women_Hairblower,10,30,-20,4.63,16.2,-11.57,2,1,666.43,1133.64,2,2,White_Wine,Computer_Tray,Popcorn_Machine,Computer_Tray,0,29.96666667,29.1,30,29.1
10,11,201,1,11,Hl,High,Low,Mentos,Scale_Kitchen,18,29,-11,9.1,15.77,-6.67,2,1,633.19,836.07,2,3,Pulse_Clock,White_Wine,Gold_USB,Flashlight,0,30,29.96666667,0.5,3.8
11,12,201,1,12,Hh,Low,High,Erasable_Board,Portable_Speaker,14,33,-19,6.53,17.6,-11.07,2,1,383.16,1086.13,1,2,Newton_Cradle,Stormtrooper_USB,White_Wine,Sushi_Kit,0,1.333333333,3.366666667,29.96666667,30
12,13,201,1,13,Hh,High,Low,Earphones,Matress_Folded,31,27,4,16.7,15,1.7,1,1,266.5,1177.25,1,1,Vodka,White_Wine,Gold_USB,Stormtrooper_USB,0,30,29.96666667,0.5,3.366666667
13,14,201,1,14,Hl,High,Low,Calculator,Table_Lamp,22,39,-17,10.33,18.8,-8.47,2,1,499.95,846.28,3,3,Pulse_Clock,Sushi_Kit,Pointer,Flashlight,0,30,30,0.733333333,3.8
14,15,201,1,15,ll,Low,Low,Fan,Portable_Speaker,19,33,-14,9.4,17.6,-8.2,2,1,432.99,1109.73,1,1,Gold_USB,Pizza,Chocolate,Newton_Cradle,0,0.5,2.166666667,1.7,1.333333333
15,16,201,1,16,ll,Low,Low,Mentos,Picnic_Cooler,18,36,-18,9.1,17.73,-8.63,2,1,499.88,1148.73,1,3,Chocolate,Flashlight,Newton_Cradle,Pointer,0,1.7,3.8,1.333333333,0.733333333
16,17,201,1,17,Hl,High,Low,Matress_Folded,Earphones,27,31,-4,15,16.7,-1.7,1,0,1066.34,918.21,1,1,Sushi_Kit,White_Wine,Flashlight,Stormtrooper_USB,0,30,29.96666667,3.8,3.366666667
17,18,201,1,18,Hl,High,Low,Head_Lamp,Scale_Kitchen,15,29,-14,6.9,15.77,-8.87,2,1,549.71,1106.82,1,2,Vodka,Pulse_Clock,Pizza,Chocolate,0,30,30,2.166666667,1.7
18,19,201,1,19,hh,High,High,Thermos,Scale_Kitchen,45,29,16,23.97,15.77,8.2,1,1,833.16,1137.44,1,2,Pulse_Clock,Sushi_Kit,White_Wine,Vodka,0,30,30,29.96666667,30
19,20,201,1,20,Hl,High,Low,Picnic_Cooler,Coffee_Machine,36,48,-12,17.73,26.23,-8.5,2,1,916.34,1169.4,1,2,Pulse_Clock,Whiskey,Pizza,Stormtrooper_USB,0,30,30,2.166666667,3.366666667
20,21,201,1,21,Hl,Low,High,Camping_Chair,Bottle,37,32,5,18.07,17.07,1,2,0,266.43,862.16,1,2,Stormtrooper_USB,Flashlight,Whiskey,Pulse_Clock,0,3.366666667,3.8,30,30
21,22,201,1,22,Hh,Low,High,Parker_Pen,Box_Pig,35,40,-5,17.63,19,-1.37,2,1,299.7,1169.15,2,3,Cake,Chocolate,Sushi_Kit,Pan,0,1.1,1.7,30,28.9
22,23,201,1,23,Hh,High,Low,Matress_Folded,Carpet_Candy,27,17,10,15,8.57,6.43,1,1,299.95,1193.19,2,1,Whiskey,Vodka,Stormtrooper_USB,Newton_Cradle,0,30,30,3.366666667,1.333333333
23,24,201,1,24,ll,Low,Low,Scale_Kitchen,Head_Lamp,29,15,14,15.77,6.9,8.87,1,1,499.64,889.23,2,1,Cake,Chocolate,Newton_Cradle,Cake,0,1.1,1.7,1.333333333,1.1
24,25,201,1,25,hh,High,High,Women_Hairblower,Chef_Knife,30,34,-4,16.2,17.6,-1.4,2,1,383.07,810.26,2,1,Whiskey,Pulse_Clock,Popcorn_Machine,Pan,0,30,30,30,28.9
25,26,201,1,26,hh,High,High,Stove,Flight_Pillow,44,12,32,23.4,5.73,17.67,1,1,716.53,855.14,1,1,Popcorn_Machine,Pulse_Clock,Pan,Whiskey,0,30,30,28.9,30
26,27,201,1,27,hh,High,High,Mentos,Iron,18,46,-28,9.1,24.47,-15.37,2,1,616.39,1156.37,3,1,White_Wine,Computer_Tray,Pulse_Clock,Pan,0,29.96666667,29.1,30,28.9
27,28,201,1,28,Hl,High,Low,Erasable_Board,Tea_Box,14,24,-10,6.53,11.43,-4.9,2,1,783.19,1139.12,1,3,Popcorn_Machine,Pulse_Clock,Stormtrooper_USB,Gold_USB,0,30,30,3.366666667,0.5
28,29,201,1,29,Hh,High,Low,Toaster,Kettle,47,21,26,25.5,10.07,15.43,1,1,283.26,1142.07,2,1,Computer_Tray,Vodka,Flashlight,Gold_USB,0,29.1,30,3.8,0.5
29,30,201,1,30,ll,Low,Low,Kinder,Women_Hairblower,10,30,-20,4.63,16.2,-11.57,2,1,467.03,918.55,1,3,Flashlight,Pizza,Chocolate,Pointer,0,3.8,2.166666667,1.7,0.733333333
30,31,201,1,31,Hh,High,Low,Portable_Speaker,Fan,33,19,14,17.6,9.4,8.2,1,1,283.13,853.13,1,3,Whiskey,Popcorn_Machine,Newton_Cradle,Pointer,0,30,30,1.333333333,0.733333333
31,32,201,1,32,Hh,Low,High,Women_Hairblower,Chef_Knife,30,34,-4,16.2,17.6,-1.4,2,1,249.79,941.47,1,3,Chocolate,Newton_Cradle,White_Wine,Whiskey,0,1.7,1.333333333,29.96666667,30
32,33,201,1,33,Hl,High,Low,Matress_Folded,Box_Pig,27,40,-13,15,19,-4,2,1,616.4,1103.96,1,2,White_Wine,Vodka,Flashlight,Gold_USB,0,29.96666667,30,3.8,0.5
33,34,201,1,34,hh,High,High,Picnic_Cooler,Coffee_Machine,36,48,-12,17.73,26.23,-8.5,2,1,1083.17,989.99,2,3,Computer_Tray,Sushi_Kit,Sushi_Kit,Whiskey,0,29.1,30,30,30
34,35,201,1,35,Hl,Low,High,Kettle,Measuring_Tape,21,11,10,10.07,5.13,4.93,2,0,833.08,1026.37,2,1,Chocolate,Flashlight,Whiskey,Pulse_Clock,0,1.7,3.8,30,30
35,36,201,1,36,Hh,High,Low,Kettle,Pasta_Strainer,21,13,8,10.07,5.83,4.23,2,0,766.52,1079.63,2,2,Computer_Tray,Vodka,Pointer,Gold_USB,0,29.1,30,0.733333333,0.5
36,37,201,1,37,ll,Low,Low,Parker_Pen,Toaster,35,47,-12,17.63,25.5,-7.87,2,1,716.61,1189.83,1,3,Flashlight,Cake,Newton_Cradle,Stormtrooper_USB,0,3.8,1.1,1.333333333,3.366666667
37,38,201,1,38,ll,Low,Low,Women_Hairblower,Chef_Knife,30,34,-4,16.2,17.6,-1.4,2,1,766.42,1175.08,1,2,Pizza,Flashlight,Flashlight,Stormtrooper_USB,0,2.166666667,3.8,3.8,3.366666667
38,39,201,1,39,hh,High,High,Tea_Box,Coffee_Machine,24,48,-24,11.43,26.23,-14.8,2,1,882.83,996.99,1,1,Vodka,Pulse_Clock,Whiskey,Vodka,0,30,30,30,30
39,40,201,1,40,Hh,Low,High,Melon_Cutter,Heat_Blower,38,43,-5,18.2,21.1,-2.9,1,0,483.12,993.94,1,2,Gold_USB,Newton_Cradle,Sushi_Kit,Pulse_Clock,0,0.5,1.333333333,30,30
40,41,201,1,41,Hl,Low,High,Box_Pig,Wine,40,28,12,19,15.5,3.5,1,1,783.09,913.21,2,2,Chocolate,Gold_USB,Pan,Pulse_Clock,0,1.7,0.5,28.9,30
41,42,201,1,42,Hh,High,Low,Iron,Box_Pig,46,40,6,24.47,19,5.47,1,1,533.26,1068.3,2,1,Pulse_Clock,Computer_Tray,Stormtrooper_USB,Pizza,0,30,29.1,3.366666667,2.166666667
42,43,201,1,43,hh,High,High,Parker_Pen,Toaster,35,47,-12,17.63,25.5,-7.87,2,1,800.02,1196.36,1,3,Pan,Popcorn_Machine,White_Wine,Whiskey,0,28.9,30,29.96666667,30
43,44,201,1,44,ll,Low,Low,Head_Lamp,Battery,15,9,6,6.9,4,2.9,2,0,616.63,1091.82,2,2,Pointer,Gold_USB,Chocolate,Stormtrooper_USB,0,0.733333333,0.5,1.7,3.366666667
44,45,201,1,45,Hl,Low,High,Melon_Cutter,Scale_Kitchen,38,29,9,18.2,15.77,2.43,2,0,433.11,1118.14,1,3,Pointer,Flashlight,Whiskey,Pulse_Clock,0,0.733333333,3.8,30,30
45,46,201,1,46,ll,Low,Low,Picnic_Cooler,Mouse,36,26,10,17.73,14.1,3.63,1,1,616.61,1131.33,3,3,Stormtrooper_USB,Gold_USB,Stormtrooper_USB,Cake,0,3.366666667,0.5,3.366666667,1.1
46,47,201,1,47,Hl,Low,High,Portable_Speaker,Fan,33,19,14,17.6,9.4,8.2,1,1,666.42,840.12,3,2,Cake,Chocolate,Vodka,Sushi_Kit,0,1.1,1.7,30,30
47,48,201,1,48,Hl,Low,High,Stove,Bottle,44,32,12,23.4,17.07,6.33,2,0,266.43,835.52,2,1,Stormtrooper_USB,Newton_Cradle,Computer_Tray,Vodka,0,3.366666667,1.333333333,29.1,30
48,49,201,1,49,Hh,High,Low,Stove,Bottle,44,32,12,23.4,17.07,6.33,1,1,316.59,1043.92,1,1,Sushi_Kit,Computer_Tray,Newton_Cradle,Chocolate,0,30,29.1,1.333333333,1.7
49,50,201,1,50,Hh,High,Low,Chef_Knife,Body_Scale,34,23,11,17.6,10.7,6.9,1,1,433.13,1081.25,3,3,Sushi_Kit,Popcorn_Machine,Newton_Cradle,Stormtrooper_USB,0,30,30,1.333333333,3.366666667
50,51,201,1,51,hh,High,High,Box_Pig,Wine,40,28,12,19,15.5,3.5,2,0,816.49,1001.94,2,1,Whiskey,Sushi_Kit,Vodka,White_Wine,0,30,30,30,29.96666667
51,52,201,1,52,Hh,Low,High,Matress_Folded,Box_Pig,27,40,-13,15,19,-4,2,1,466.48,831.18,3,2,Cake,Pointer,Popcorn_Machine,Pulse_Clock,0,1.1,0.733333333,30,30
52,53,201,1,53,ll,Low,Low,Body_Scale,Picnic_Cooler,23,36,-13,10.7,17.73,-7.03,2,1,483.06,1052.39,1,3,Pointer,Newton_Cradle,Pointer,Gold_USB,0,0.733333333,1.333333333,0.733333333,0.5
53,54,201,1,54,Hh,Low,High,Wine,Bottle,28,32,-4,15.5,17.07,-1.57,2,1,350.06,902.38,1,2,Pizza,Pointer,Popcorn_Machine,White_Wine,0,2.166666667,0.733333333,30,29.96666667
54,55,201,1,55,Hl,High,Low,Pasta_Strainer,Kettle,13,21,-8,5.83,10.07,-4.23,1,0,433.05,866.64,1,3,Pan,White_Wine,Stormtrooper_USB,Gold_USB,0,28.9,29.96666667,3.366666667,0.5
55,56,201,1,56,hh,High,High,Mentos,Picnic_Cooler,18,36,-18,9.1,17.73,-8.63,2,1,532.95,1142.62,2,1,Whiskey,Vodka,Whiskey,Popcorn_Machine,0,30,30,30,30
56,57,201,1,57,Hl,Low,High,Erasable_Board,Pasta_Strainer,14,13,1,6.53,5.83,0.7,2,0,399.85,1197.94,1,1,Newton_Cradle,Flashlight,Computer_Tray,Whiskey,0,1.333333333,3.8,29.1,30
57,58,201,1,58,Hh,High,Low,Backpack,Women_Hairblower,41,30,11,19.37,16.2,3.17,1,1,949.83,1053.77,3,1,Vodka,Sushi_Kit,Pizza,Stormtrooper_USB,0,30,30,2.166666667,3.366666667
58,59,201,1,59,Hh,Low,High,Measuring_Tape,Kettle,11,21,-10,5.13,10.07,-4.93,1,0,699.73,889.49,1,2,Pizza,Newton_Cradle,White_Wine,Whiskey,0,2.166666667,1.333333333,29.96666667,30
59,60,201,1,60,ll,Low,Low,Bottle,Wine,32,28,4,17.07,15.5,1.57,1,1,483.28,923.19,1,3,Newton_Cradle,Gold_USB,Chocolate,Gold_USB,0,1.333333333,0.5,1.7,0.5
60,61,201,1,61,Hl,Low,High,Bottle,Body_Scale,32,23,9,17.07,10.7,6.37,1,1,716.59,848.63,1,2,Gold_USB,Newton_Cradle,Sushi_Kit,Vodka,0,0.5,1.333333333,30,30
61,62,201,1,62,Hl,High,Low,Fan,Bottle,19,32,-13,9.4,17.07,-7.67,2,1,666.65,829.48,1,2,Sushi_Kit,Computer_Tray,Pizza,Stormtrooper_USB,0,30,29.1,2.166666667,3.366666667
62,63,201,1,63,Hh,Low,High,Carpet_Candy,Beer,17,25,-8,8.57,12.03,-3.47,2,1,366.31,1027.18,1,2,Chocolate,Cake,Popcorn_Machine,Vodka,0,1.7,1.1,30,30
63,64,201,1,64,Hh,Low,High,Pasta_Strainer,Erasable_Board,13,14,-1,5.83,6.53,-0.7,1,0,549.89,925.8,3,3,Pointer,Gold_USB,Sushi_Kit,Pulse_Clock,0,0.733333333,0.5,30,30
64,65,201,1,65,Hh,High,Low,Women_Hairblower,Body_Scale,30,23,7,16.2,10.7,5.5,1,1,466.64,1144.33,3,3,Computer_Tray,Pulse_Clock,Chocolate,Flashlight,0,29.1,30,1.7,3.8
65,66,201,1,66,Hl,Low,High,Parker_Pen,Tea_Box,35,24,11,17.63,11.43,6.2,1,1,916.41,880.92,2,1,Flashlight,Stormtrooper_USB,Popcorn_Machine,Pulse_Clock,0,3.8,3.366666667,30,30
66,67,201,1,67,Hl,High,Low,Parker_Pen,Toaster,35,47,-12,17.63,25.5,-7.87,2,1,666.42,1056.72,2,2,Whiskey,Popcorn_Machine,Pizza,Newton_Cradle,0,30,30,2.166666667,1.333333333
67,68,201,1,68,hh,High,High,Scale_Kitchen,Melon_Cutter,29,38,-9,15.77,18.2,-2.43,1,0,549.78,1143.37,2,2,Pan,Computer_Tray,Popcorn_Machine,Pan,0,28.9,29.1,30,28.9
68,69,201,1,69,ll,Low,Low,Scale_Kitchen,Thermos,29,45,-16,15.77,23.97,-8.2,2,1,599.79,863.91,2,3,Flashlight,Chocolate,Newton_Cradle,Gold_USB,0,3.8,1.7,1.333333333,0.5
69,70,201,1,70,Hl,Low,High,Box_Pig,Parker_Pen,40,35,5,19,17.63,1.37,1,1,549.93,1096.76,1,2,Newton_Cradle,Flashlight,Vodka,Pan,0,1.333333333,3.8,30,28.9
70,71,201,1,71,hh,High,High,Fan,Portable_Speaker,19,33,-14,9.4,17.6,-8.2,2,1,566.51,913.12,3,2,Pulse_Clock,Vodka,Computer_Tray,Whiskey,0,30,30,29.1,30
71,72,201,1,72,ll,Low,Low,Women_Hairblower,Sleeping_Bag,30,20,10,16.2,9.83,6.37,1,1,416.39,829.18,2,2,Flashlight,Pointer,Pizza,Chocolate,0,3.8,0.733333333,2.166666667,1.7
72,73,201,1,73,Hl,Low,High,Stove,Flight_Pillow,44,12,32,23.4,5.73,17.67,1,1,649.67,1050.6,2,3,Pointer,Cake,Computer_Tray,Whiskey,0,0.733333333,1.1,29.1,30
73,74,201,1,74,Hh,Low,High,Scale_Kitchen,Thermos,29,45,-16,15.77,23.97,-8.2,2,1,433.15,833.72,3,2,Gold_USB,Flashlight,White_Wine,Popcorn_Machine,0,0.5,3.8,29.96666667,30
74,75,201,1,75,Hl,High,Low,Measuring_Tape,Mouse,11,26,-15,5.13,14.1,-8.97,1,0,383.07,833.8,1,1,Sushi_Kit,Popcorn_Machine,Chocolate,Newton_Cradle,0,30,30,1.7,1.333333333
75,76,201,1,76,Hl,High,Low,Kettle,Scale_Kitchen,21,29,-8,10.07,15.77,-5.7,1,0,733.09,1059.79,3,1,Popcorn_Machine,Pulse_Clock,Pointer,Flashlight,0,30,30,0.733333333,3.8
76,77,201,1,77,hh,High,High,Matress_Folded,Box_Pig,27,40,-13,15,19,-4,2,1,933.15,845.32,2,3,Sushi_Kit,Computer_Tray,Pan,Computer_Tray,0,30,29.1,28.9,29.1
77,78,201,1,78,Hl,High,Low,Matress_Folded,Coffee_Machine,27,48,-21,15,26.23,-11.23,2,1,649.86,1129.67,2,3,Whiskey,Popcorn_Machine,Newton_Cradle,Flashlight,0,30,30,1.333333333,3.8
78,79,201,1,79,Hl,Low,High,Beer,Calculator,25,22,3,12.03,10.33,1.7,1,1,799.91,1147.62,2,2,Gold_USB,Stormtrooper_USB,Whiskey,Pulse_Clock,0,0.5,3.366666667,30,30
79,80,201,1,80,Hh,Low,High,Tea_Box,Coffee_Machine,24,48,-24,11.43,26.23,-14.8,2,1,366.51,891.85,1,3,Newton_Cradle,Flashlight,Popcorn_Machine,Sushi_Kit,0,1.333333333,3.8,30,30
80,81,201,1,81,Hl,High,Low,Beer,Portable_Speaker,25,33,-8,12.03,17.6,-5.57,2,1,916.51,1081.6,3,3,White_Wine,Computer_Tray,Pointer,Cake,0,29.96666667,29.1,0.733333333,1.1
81,82,201,1,82,Hh,Low,High,Portable_Speaker,Coffee_Machine,33,48,-15,17.6,26.23,-8.63,2,1,316.46,814.17,2,1,Chocolate,Gold_USB,Sushi_Kit,White_Wine,0,1.7,0.5,30,29.96666667
82,83,201,1,83,ll,Low,Low,Coffee_Machine,Picnic_Cooler,48,36,12,26.23,17.73,8.5,2,0,616.46,1015.77,3,2,Cake,Gold_USB,Pizza,Chocolate,0,1.1,0.5,2.166666667,1.7
83,84,201,1,84,Hh,Low,High,Bottle,Camping_Chair,32,37,-5,17.07,18.07,-1,2,1,266.44,1145.54,1,1,Newton_Cradle,Stormtrooper_USB,Pan,Whiskey,0,1.333333333,3.366666667,28.9,30
84,85,201,1,85,Hl,Low,High,Portable_Speaker,Erasable_Board,33,14,19,17.6,6.53,11.07,1,1,566.51,920.3,2,2,Stormtrooper_USB,Chocolate,White_Wine,Computer_Tray,0,3.366666667,1.7,29.96666667,29.1
85,86,201,1,86,hh,High,High,Sleeping_Bag,Women_Hairblower,20,30,-10,9.83,16.2,-6.37,1,0,916.48,1026.13,2,3,Popcorn_Machine,Pan,Pan,White_Wine,0,30,28.9,28.9,29.96666667
86,87,201,1,87,ll,Low,Low,Flight_Pillow,Stove,12,44,-32,5.73,23.4,-17.67,2,1,583.14,1124.83,1,2,Newton_Cradle,Stormtrooper_USB,Cake,Pointer,0,1.333333333,3.366666667,1.1,0.733333333
87,88,201,1,88,Hh,High,Low,Portable_Speaker,Beer,33,25,8,17.6,12.03,5.57,1,1,499.88,1120.42,1,3,Computer_Tray,Sushi_Kit,Newton_Cradle,Stormtrooper_USB,0,29.1,30,1.333333333,3.366666667
88,89,201,1,89,Hh,Low,High,Fan,Kettle,19,21,-2,9.4,10.07,-0.67,2,1,449.73,829.62,1,2,Stormtrooper_USB,Chocolate,Whiskey,Pulse_Clock,0,3.366666667,1.7,30,30
89,90,201,1,90,Hl,High,Low,Wine,Bottle,28,32,-4,15.5,17.07,-1.57,1,0,333.07,1116.76,1,1,Pulse_Clock,Popcorn_Machine,Newton_Cradle,Pizza,0,30,30,1.333333333,2.166666667
90,91,201,2,1,Hl,Low,High,Thermos,Head_Lamp,45,15,30,23.97,6.9,17.07,1,1,349.73,1118.53,3,2,Chocolate,Stormtrooper_USB,Pulse_Clock,Whiskey,0,1.7,3.366666667,30,30
91,92,201,2,2,ll,Low,Low,Tea_Box,Erasable_Board,24,14,10,11.43,6.53,4.9,1,1,666.62,1020.23,1,1,Pizza,Gold_USB,Chocolate,Cake,0,2.166666667,0.5,1.7,1.1
92,93,201,2,3,Hh,High,Low,Mouse,Measuring_Tape,26,11,15,14.1,5.13,8.97,2,0,532.99,1112.24,1,2,Sushi_Kit,Popcorn_Machine,Chocolate,Newton_Cradle,0,30,30,1.7,1.333333333
93,94,201,2,4,hh,High,High,Body_Scale,Camping_Chair,23,37,-14,10.7,18.07,-7.37,2,1,666.54,993.71,3,2,Popcorn_Machine,White_Wine,Sushi_Kit,Whiskey,0,30,29.96666667,30,30
94,95,201,2,5,Hl,Low,High,Chef_Knife,Matress_Folded,34,27,7,17.6,15,2.6,1,1,749.72,899.38,2,1,Gold_USB,Chocolate,Computer_Tray,Vodka,0,0.5,1.7,29.1,30
95,96,201,2,6,hh,High,High,Bottle,Wine,32,28,4,17.07,15.5,1.57,2,0,1233.54,1072.14,1,2,Popcorn_Machine,Sushi_Kit,Sushi_Kit,Vodka,0,30,30,30,30
96,97,201,2,7,Hl,Low,High,Chef_Knife,Body_Scale,34,23,11,17.6,10.7,6.9,1,1,999.86,851.2,3,2,Flashlight,Newton_Cradle,Computer_Tray,Sushi_Kit,0,3.8,1.333333333,29.1,30
97,98,201,2,8,Hl,Low,High,Head_Lamp,Battery,15,9,6,6.9,4,2.9,1,1,916.53,1144.79,3,3,Chocolate,Gold_USB,Vodka,Whiskey,0,1.7,0.5,30,30
98,99,201,2,9,Hh,Low,High,Earphones,Melon_Cutter,31,38,-7,16.7,18.2,-1.5,2,1,99.81,1066.36,1,3,Chocolate,Flashlight,Popcorn_Machine,Pulse_Clock,0,1.7,3.8,30,30
99,100,201,2,10,ll,Low,Low,Fan,Bottle,19,32,-13,9.4,17.07,-7.67,2,1,1199.78,879.64,1,2,Newton_Cradle,Flashlight,Chocolate,Pizza,0,1.333333333,3.8,1.7,2.166666667
100,101,201,2,11,Hh,Low,High,Mentos,Scale_Kitchen,18,29,-11,9.1,15.77,-6.67,2,1,449.92,977.29,3,1,Gold_USB,Pizza,Pulse_Clock,White_Wine,0,0.5,2.166666667,30,29.96666667
101,102,201,2,12,Hl,Low,High,Wine,Beer,28,25,3,15.5,12.03,3.47,2,0,483.21,943.8,1,3,Flashlight,Chocolate,Popcorn_Machine,White_Wine,0,3.8,1.7,30,29.96666667
102,103,201,2,13,Hh,High,Low,Stove,Flight_Pillow,44,12,32,23.4,5.73,17.67,1,1,549.85,999.38,3,3,Computer_Tray,Popcorn_Machine,Newton_Cradle,Flashlight,0,29.1,30,1.333333333,3.8
103,104,201,2,14,Hh,High,Low,Coffee_Machine,Picnic_Cooler,48,36,12,26.23,17.73,8.5,1,1,383.19,988.2,1,1,Pulse_Clock,Whiskey,Pizza,Stormtrooper_USB,0,30,30,2.166666667,3.366666667
104,105,201,2,15,Hh,Low,High,Tea_Box,Parker_Pen,24,35,-11,11.43,17.63,-6.2,1,0,566.54,1108.71,2,1,Flashlight,Pointer,Pulse_Clock,Sushi_Kit,0,3.8,0.733333333,30,30
105,106,201,2,16,Hh,Low,High,Mouse,Penknife,26,42,-16,14.1,19.83,-5.73,2,1,349.82,1163.8,2,3,Flashlight,Chocolate,Computer_Tray,Pan,0,3.8,1.7,29.1,28.9
106,107,201,2,17,Hl,High,Low,Mentos,Picnic_Cooler,18,36,-18,9.1,17.73,-8.63,2,1,633.13,921.22,2,1,Whiskey,Vodka,Newton_Cradle,Chocolate,0,30,30,1.333333333,1.7
107,108,201,2,18,Hl,High,Low,Box_Pig,Iron,40,46,-6,19,24.47,-5.47,1,0,483.02,1063.23,2,1,Computer_Tray,Pulse_Clock,Chocolate,Pointer,0,29.1,30,1.7,0.733333333
108,109,201,2,19,Hl,High,Low,Body_Scale,Camping_Chair,23,37,-14,10.7,18.07,-7.37,2,1,733.34,1066.4,2,1,Computer_Tray,Vodka,Newton_Cradle,Stormtrooper_USB,0,29.1,30,1.333333333,3.366666667
109,110,201,2,20,Hl,High,Low,Carpet_Candy,Beer,17,25,-8,8.57,12.03,-3.47,1,0,833.2,893.29,3,3,Computer_Tray,Whiskey,Pizza,Gold_USB,0,29.1,30,2.166666667,0.5
110,111,201,2,21,hh,High,High,Measuring_Tape,Kinder,11,10,1,5.13,4.63,0.5,1,1,916.51,906.86,3,2,Pan,White_Wine,White_Wine,Pulse_Clock,0,28.9,29.96666667,29.96666667,30
111,112,201,2,22,Hl,Low,High,Stove,Parker_Pen,44,35,9,23.4,17.63,5.77,1,1,833.24,894.55,2,3,Chocolate,Gold_USB,Whiskey,Vodka,0,1.7,0.5,30,30
112,113,201,2,23,Hl,High,Low,Parker_Pen,Penknife,35,42,-7,17.63,19.83,-2.2,2,1,1116.53,890.39,1,3,Computer_Tray,Sushi_Kit,Pizza,Pointer,0,29.1,30,2.166666667,0.733333333
113,114,201,2,24,Hl,Low,High,Penknife,Mouse,42,26,16,19.83,14.1,5.73,1,1,999.68,934.99,3,1,Stormtrooper_USB,Chocolate,Pan,Vodka,0,3.366666667,1.7,28.9,30
114,115,201,2,25,Hh,High,Low,Camping_Chair,Body_Scale,37,23,14,18.07,10.7,7.37,1,1,583.33,915.45,2,1,Sushi_Kit,Pan,Chocolate,Cake,0,30,28.9,1.7,1.1
115,116,201,2,26,Hh,Low,High,Head_Lamp,Thermos,15,45,-30,6.9,23.97,-17.07,2,1,466.66,990.78,3,3,Flashlight,Stormtrooper_USB,Whiskey,Computer_Tray,0,3.8,3.366666667,30,29.1
116,117,201,2,27,Hh,Low,High,Mentos,Matress_Folded,18,27,-9,9.1,15,-5.9,2,1,766.29,948.25,3,2,Pizza,Flashlight,Whiskey,White_Wine,0,2.166666667,3.8,30,29.96666667
117,118,201,2,28,Hl,Low,High,Backpack,Women_Hairblower,41,30,11,19.37,16.2,3.17,1,1,883.16,1181.39,2,2,Chocolate,Cake,White_Wine,Computer_Tray,0,1.7,1.1,29.96666667,29.1
118,119,201,2,29,Hh,High,Low,Melon_Cutter,Scale_Kitchen,38,29,9,18.2,15.77,2.43,2,0,383.1,1020.56,2,1,Pan,Pulse_Clock,Cake,Flashlight,0,28.9,30,1.1,3.8
119,120,201,2,30,ll,Low,Low,Calculator,Beer,22,25,-3,10.33,12.03,-1.7,2,1,583.28,861.31,1,2,Chocolate,Stormtrooper_USB,Pizza,Pointer,0,1.7,3.366666667,2.166666667,0.733333333
120,121,201,2,31,Hh,Low,High,Sleeping_Bag,Women_Hairblower,20,30,-10,9.83,16.2,-6.37,1,0,566.35,1127.3,2,1,Gold_USB,Pointer,Sushi_Kit,Computer_Tray,0,0.5,0.733333333,30,29.1
121,122,201,2,32,Hh,Low,High,Kinder,Measuring_Tape,10,11,-1,4.63,5.13,-0.5,2,1,516.43,1007.35,2,3,Gold_USB,Newton_Cradle,White_Wine,Whiskey,0,0.5,1.333333333,29.96666667,30
122,123,201,2,33,Hl,Low,High,Heat_Blower,Melon_Cutter,43,38,5,21.1,18.2,2.9,1,1,483.19,1123.39,3,3,Pizza,Newton_Cradle,Whiskey,Vodka,0,2.166666667,1.333333333,30,30
123,124,201,2,34,Hl,Low,High,Kettle,Fan,21,19,2,10.07,9.4,0.67,1,1,958.36,1112.71,2,3,Stormtrooper_USB,Newton_Cradle,Computer_Tray,Sushi_Kit,0,3.366666667,1.333333333,29.1,30
124,125,201,2,35,Hl,Low,High,Women_Hairblower,Sleeping_Bag,30,20,10,16.2,9.83,6.37,1,1,483.03,1164.27,1,1,Gold_USB,Chocolate,Computer_Tray,Popcorn_Machine,0,0.5,1.7,29.1,30
125,126,201,2,36,Hh,Low,High,Parker_Pen,Toaster,35,47,-12,17.63,25.5,-7.87,2,1,349.81,951.46,3,3,Pointer,Cake,Vodka,Sushi_Kit,0,0.733333333,1.1,30,30
126,127,201,2,37,Hh,High,Low,Box_Pig,Wine,40,28,12,19,15.5,3.5,1,1,533.07,1185.32,3,3,Pulse_Clock,Sushi_Kit,Pointer,Chocolate,0,30,30,0.733333333,1.7
127,128,201,2,38,ll,Low,Low,Stove,Bottle,44,32,12,23.4,17.07,6.33,1,1,333.11,849.59,2,3,Flashlight,Stormtrooper_USB,Newton_Cradle,Pizza,0,3.8,3.366666667,1.333333333,2.166666667
128,129,201,2,39,Hh,Low,High,Body_Scale,Bottle,23,32,-9,10.7,17.07,-6.37,2,1,683.04,886.05,2,2,Stormtrooper_USB,Cake,Vodka,Sushi_Kit,0,3.366666667,1.1,30,30
129,130,201,2,40,ll,Low,Low,Heat_Blower,Melon_Cutter,43,38,5,21.1,18.2,2.9,1,1,599.84,1071.69,1,2,Pointer,Flashlight,Flashlight,Newton_Cradle,0,0.733333333,3.8,3.8,1.333333333
130,131,201,2,41,Hl,Low,High,Picnic_Cooler,Mouse,36,26,10,17.73,14.1,3.63,1,1,533.16,833.71,1,2,Newton_Cradle,Cake,Vodka,White_Wine,0,1.333333333,1.1,30,29.96666667
131,132,201,2,42,hh,High,High,Calculator,Beer,22,25,-3,10.33,12.03,-1.7,2,1,499.81,1146.53,3,3,Sushi_Kit,Popcorn_Machine,White_Wine,Whiskey,0,30,30,29.96666667,30
132,133,201,2,43,ll,Low,Low,Box_Pig,Matress_Folded,40,27,13,19,15,4,1,1,383.23,1094.92,3,1,Stormtrooper_USB,Chocolate,Flashlight,Pointer,0,3.366666667,1.7,3.8,0.733333333
133,134,201,2,44,hh,High,High,Picnic_Cooler,Body_Scale,36,23,13,17.73,10.7,7.03,1,1,832.98,861.53,1,2,Pan,Vodka,Sushi_Kit,Vodka,0,28.9,30,30,30
134,135,201,2,45,Hl,Low,High,Melon_Cutter,Earphones,38,31,7,18.2,16.7,1.5,2,0,416.6,1048.6,2,3,Stormtrooper_USB,Flashlight,Vodka,Sushi_Kit,0,3.366666667,3.8,30,30
135,136,201,2,46,Hh,High,Low,Mentos,Battery,18,9,9,9.1,4,5.1,1,1,632.87,1116.36,3,3,Computer_Tray,Popcorn_Machine,Newton_Cradle,Stormtrooper_USB,0,29.1,30,1.333333333,3.366666667
136,137,201,2,47,Hl,Low,High,Mentos,Battery,18,9,9,9.1,4,5.1,1,1,549.77,1025.53,1,1,Stormtrooper_USB,Pizza,Sushi_Kit,Popcorn_Machine,0,3.366666667,2.166666667,30,30
137,138,201,2,48,ll,Low,Low,Measuring_Tape,Mouse,11,26,-15,5.13,14.1,-8.97,1,0,483.09,1092.81,3,1,Chocolate,Stormtrooper_USB,Newton_Cradle,Pizza,0,1.7,3.366666667,1.333333333,2.166666667
138,139,201,2,49,Hl,Low,High,Measuring_Tape,Kinder,11,10,1,5.13,4.63,0.5,1,1,616.55,867.37,1,2,Chocolate,Gold_USB,Sushi_Kit,Computer_Tray,0,1.7,0.5,30,29.1
139,140,201,2,50,hh,High,High,Scale_Kitchen,Head_Lamp,29,15,14,15.77,6.9,8.87,1,1,949.77,837.89,1,3,Popcorn_Machine,Pan,Sushi_Kit,Whiskey,0,30,28.9,30,30
140,141,201,2,51,Hl,Low,High,Coffee_Machine,Portable_Speaker,48,33,15,26.23,17.6,8.63,1,1,1016.5,923.1,1,2,Gold_USB,Pointer,Vodka,Pulse_Clock,0,0.5,0.733333333,30,30
141,142,201,2,52,hh,High,High,Erasable_Board,Tea_Box,14,24,-10,6.53,11.43,-4.9,2,1,533.42,1119.17,2,3,Pulse_Clock,White_Wine,Vodka,Popcorn_Machine,0,30,29.96666667,30,30
142,143,201,2,53,hh,High,High,Women_Hairblower,Backpack,30,41,-11,16.2,19.37,-3.17,2,1,449.96,1188.22,2,2,White_Wine,Whiskey,Vodka,Computer_Tray,0,29.96666667,30,30,29.1
143,144,201,2,54,hh,High,High,Bottle,Fan,32,19,13,17.07,9.4,7.67,1,1,650.16,985.64,3,3,Whiskey,Popcorn_Machine,Computer_Tray,Sushi_Kit,0,30,30,29.1,30
144,145,201,2,55,Hl,Low,High,Coffee_Machine,Tea_Box,48,24,24,26.23,11.43,14.8,1,1,499.7,1021.68,3,3,Gold_USB,Newton_Cradle,Pulse_Clock,Sushi_Kit,0,0.5,1.333333333,30,30
145,146,201,2,56,Hl,Low,High,Matress_Folded,Carpet_Candy,27,17,10,15,8.57,6.43,1,1,433.07,995.78,2,2,Cake,Pizza,Vodka,Popcorn_Machine,0,1.1,2.166666667,30,30
146,147,201,2,57,Hl,High,Low,Scale_Kitchen,Thermos,29,45,-16,15.77,23.97,-8.2,2,1,499.67,836.9,2,1,Whiskey,White_Wine,Gold_USB,Pointer,0,30,29.96666667,0.5,0.733333333
147,148,201,2,58,Hh,Low,High,Erasable_Board,Tea_Box,14,24,-10,6.53,11.43,-4.9,2,1,749.74,985.26,3,3,Pizza,Newton_Cradle,Whiskey,Pan,0,2.166666667,1.333333333,30,28.9
148,149,201,2,59,hh,High,High,Picnic_Cooler,Mouse,36,26,10,17.73,14.1,3.63,1,1,532.99,830.21,1,2,Pulse_Clock,Computer_Tray,Sushi_Kit,Popcorn_Machine,0,30,29.1,30,30
149,150,201,2,60,Hh,High,Low,Beer,Calculator,25,22,3,12.03,10.33,1.7,1,1,599.81,1137.24,1,1,Pan,Vodka,Stormtrooper_USB,Pizza,0,28.9,30,3.366666667,2.166666667
150,151,201,2,61,Hh,High,Low,Bottle,Fan,32,19,13,17.07,9.4,7.67,1,1,516.41,1154.68,1,1,Pulse_Clock,Sushi_Kit,Stormtrooper_USB,Gold_USB,0,30,30,3.366666667,0.5
151,152,201,2,62,Hl,Low,High,Iron,Box_Pig,46,40,6,24.47,19,5.47,2,0,499.86,1168.25,3,2,Stormtrooper_USB,Chocolate,Whiskey,Pulse_Clock,0,3.366666667,1.7,30,30
152,153,201,2,63,ll,Low,Low,Body_Scale,Camping_Chair,23,37,-14,10.7,18.07,-7.37,2,1,449.72,1172.04,3,3,Chocolate,Flashlight,Chocolate,Pizza,0,1.7,3.8,1.7,2.166666667
153,154,201,2,64,Hl,High,Low,Pringles,Mentos,16,18,-2,8.23,9.1,-0.87,1,0,1083.14,805.11,1,2,Computer_Tray,Popcorn_Machine,Pointer,Stormtrooper_USB,0,29.1,30,0.733333333,3.366666667
154,155,201,2,65,Hh,Low,High,Mentos,Picnic_Cooler,18,36,-18,9.1,17.73,-8.63,2,1,683.23,839.55,3,3,Flashlight,Newton_Cradle,Computer_Tray,Pan,0,3.8,1.333333333,29.1,28.9
155,156,201,2,66,ll,Low,Low,Mentos,Pringles,18,16,2,9.1,8.23,0.87,2,0,566.33,1040.06,2,1,Newton_Cradle,Pizza,Gold_USB,Chocolate,0,1.333333333,2.166666667,0.5,1.7
156,157,201,2,67,hh,High,High,Measuring_Tape,Mouse,11,26,-15,5.13,14.1,-8.97,1,0,499.88,965.55,1,2,Popcorn_Machine,Sushi_Kit,Computer_Tray,Popcorn_Machine,0,30,30,29.1,30
157,158,201,2,68,hh,High,High,Battery,Head_Lamp,9,15,-6,4,6.9,-2.9,2,1,799.94,1011.49,2,3,Computer_Tray,Vodka,Pan,White_Wine,0,29.1,30,28.9,29.96666667
158,159,201,2,69,Hl,High,Low,Kinder,Women_Hairblower,10,30,-20,4.63,16.2,-11.57,2,1,566.4,827.38,2,3,Computer_Tray,Popcorn_Machine,Flashlight,Pointer,0,29.1,30,3.8,0.733333333
159,160,201,2,70,Hl,Low,High,Iron,Mentos,46,18,28,24.47,9.1,15.37,2,0,1033.14,988,3,2,Pointer,Chocolate,Sushi_Kit,Popcorn_Machine,0,0.733333333,1.7,30,30
160,161,201,2,71,ll,Low,Low,Tea_Box,Coffee_Machine,24,48,-24,11.43,26.23,-14.8,2,1,516.6,926.8,2,3,Pointer,Stormtrooper_USB,Flashlight,Stormtrooper_USB,0,0.733333333,3.366666667,3.8,3.366666667
161,162,201,2,72,ll,Low,Low,Iron,Mentos,46,18,28,24.47,9.1,15.37,1,1,933.18,807.73,2,2,Pointer,Stormtrooper_USB,Cake,Flashlight,0,0.733333333,3.366666667,1.1,3.8
162,163,201,2,73,ll,Low,Low,Bottle,Body_Scale,32,23,9,17.07,10.7,6.37,1,1,499.75,1172.99,2,2,Stormtrooper_USB,Pointer,Pizza,Flashlight,0,3.366666667,0.733333333,2.166666667,3.8
163,164,201,2,74,Hl,High,Low,Women_Hairblower,Chef_Knife,30,34,-4,16.2,17.6,-1.4,2,1,1066.54,1087.39,2,1,White_Wine,Sushi_Kit,Pointer,Newton_Cradle,0,29.96666667,30,0.733333333,1.333333333
164,165,201,2,75,Hh,High,Low,Scale_Kitchen,Kettle,29,21,8,15.77,10.07,5.7,1,1,633.17,1063.65,3,2,Pan,Sushi_Kit,Flashlight,Gold_USB,0,28.9,30,3.8,0.5
165,166,201,2,76,ll,Low,Low,Box_Pig,Wine,40,28,12,19,15.5,3.5,2,0,683.25,969.07,2,1,Newton_Cradle,Flashlight,Cake,Newton_Cradle,0,1.333333333,3.8,1.1,1.333333333
166,167,201,2,77,Hh,High,Low,Mentos,Pringles,18,16,2,9.1,8.23,0.87,2,0,899.82,889.61,1,1,Pulse_Clock,Popcorn_Machine,Gold_USB,Flashlight,0,30,30,0.5,3.8
167,168,201,2,78,Hh,Low,High,Parker_Pen,Stove,35,44,-9,17.63,23.4,-5.77,1,0,1283.15,883.34,2,3,Gold_USB,Stormtrooper_USB,Sushi_Kit,White_Wine,0,0.5,3.366666667,30,29.96666667
168,169,201,2,79,hh,High,High,Pringles,Mentos,16,18,-2,8.23,9.1,-0.87,1,0,1299.95,1148.88,3,1,Popcorn_Machine,Vodka,White_Wine,Pulse_Clock,0,30,30,29.96666667,30
169,170,201,2,80,Hl,High,Low,Body_Scale,Women_Hairblower,23,30,-7,10.7,16.2,-5.5,2,1,249.96,1028.87,2,3,Popcorn_Machine,Pan,Pizza,Cake,0,30,28.9,2.166666667,1.1
170,171,201,2,81,Hh,Low,High,Mouse,Picnic_Cooler,26,36,-10,14.1,17.73,-3.63,2,1,382.99,1153.61,1,1,Flashlight,Stormtrooper_USB,Vodka,White_Wine,0,3.8,3.366666667,30,29.96666667
171,172,201,2,82,Hh,Low,High,Body_Scale,Picnic_Cooler,23,36,-13,10.7,17.73,-7.03,2,1,416.38,921.67,1,3,Chocolate,Stormtrooper_USB,Vodka,White_Wine,0,1.7,3.366666667,30,29.96666667
172,173,201,2,83,hh,High,High,Body_Scale,Bottle,23,32,-9,10.7,17.07,-6.37,2,1,766.53,1049.31,2,1,Computer_Tray,Pulse_Clock,Sushi_Kit,Computer_Tray,0,29.1,30,30,29.1
173,174,201,2,84,Hh,Low,High,Head_Lamp,Scale_Kitchen,15,29,-14,6.9,15.77,-8.87,2,1,949.92,1192.75,2,2,Flashlight,Pizza,White_Wine,Computer_Tray,0,3.8,2.166666667,29.96666667,29.1
174,175,201,2,85,ll,Low,Low,Measuring_Tape,Kinder,11,10,1,5.13,4.63,0.5,1,1,599.66,1023.11,3,1,Pizza,Cake,Chocolate,Newton_Cradle,0,2.166666667,1.1,1.7,1.333333333
175,176,201,2,86,Hh,High,Low,Iron,Mentos,46,18,28,24.47,9.1,15.37,1,1,533.17,1065.46,1,3,Pan,Popcorn_Machine,Gold_USB,Pointer,0,28.9,30,0.5,0.733333333
176,177,201,2,87,Hh,High,Low,Penknife,Parker_Pen,42,35,7,19.83,17.63,2.2,1,1,599.86,1031.33,2,2,Sushi_Kit,White_Wine,Flashlight,Pointer,0,30,29.96666667,3.8,0.733333333
177,178,201,2,88,Hh,Low,High,Beer,Wine,25,28,-3,12.03,15.5,-3.47,2,1,999.84,845.57,3,1,Cake,Newton_Cradle,Popcorn_Machine,White_Wine,0,1.1,1.333333333,30,29.96666667
178,179,201,2,89,ll,Low,Low,Backpack,Women_Hairblower,41,30,11,19.37,16.2,3.17,1,1,549.91,954.37,3,2,Pointer,Stormtrooper_USB,Pointer,Newton_Cradle,0,0.733333333,3.366666667,0.733333333,1.333333333
179,180,201,2,90,hh,High,High,Bottle,Stove,32,44,-12,17.07,23.4,-6.33,2,1,1016.59,1097.29,1,1,Sushi_Kit,Pan,Pan,Pulse_Clock,0,30,28.9,28.9,30
180,1,201,1,1,No_context,None,None,Earphones,Matress_Folded,31,27,4,16.7,15,1.7,2,0,266.38,912.35,,,,,,,0,,,,
181,2,201,1,2,No_context,None,None,Matress_Folded,Chef_Knife,27,34,-7,15,17.6,-2.6,2,1,332.74,977.54,,,,,,,0,,,,
182,3,201,1,3,No_context,None,None,Iron,Box_Pig,46,40,6,24.47,19,5.47,2,0,316.23,989.49,,,,,,,0,,,,
183,4,201,1,4,No_context,None,None,Parker_Pen,Tea_Box,35,24,11,17.63,11.43,6.2,1,1,332.89,1017.21,,,,,,,0,,,,
184,5,201,1,5,No_context,None,None,Toaster,Kettle,47,21,26,25.5,10.07,15.43,1,1,316.1,987.63,,,,,,,0,,,,
185,6,201,1,6,No_context,None,None,Thermos,Head_Lamp,45,15,30,23.97,6.9,17.07,1,1,333.02,1019.62,,,,,,,0,,,,
186,7,201,1,7,No_context,None,None,Camping_Chair,Bottle,37,32,5,18.07,17.07,1,1,1,516.44,929.89,,,,,,,0,,,,
187,8,201,1,8,No_context,None,None,Melon_Cutter,Heat_Blower,38,43,-5,18.2,21.1,-2.9,2,1,266.61,856.92,,,,,,,0,,,,
188,9,201,1,9,No_context,None,None,Camping_Chair,Bottle,37,32,5,18.07,17.07,1,1,1,316.69,1030.82,,,,,,,0,,,,
189,10,201,1,10,No_context,None,None,Wine,Bottle,28,32,-4,15.5,17.07,-1.57,1,0,333.05,816.6,,,,,,,0,,,,
190,11,201,1,11,No_context,None,None,Bottle,Stove,32,44,-12,17.07,23.4,-6.33,2,1,350.08,1195.79,,,,,,,0,,,,
191,12,201,1,12,No_context,None,None,Chef_Knife,Body_Scale,34,23,11,17.6,10.7,6.9,1,1,583.2,1167.35,,,,,,,0,,,,
192,13,201,1,13,No_context,None,None,Fan,Kettle,19,21,-2,9.4,10.07,-0.67,2,1,999.83,1004.96,,,,,,,0,,,,
193,14,201,1,14,No_context,None,None,Picnic_Cooler,Body_Scale,36,23,13,17.73,10.7,7.03,1,1,399.93,1104.52,,,,,,,0,,,,
194,15,201,1,15,No_context,None,None,Tea_Box,Parker_Pen,24,35,-11,11.43,17.63,-6.2,2,1,366.69,928.48,,,,,,,0,,,,
195,16,201,1,16,No_context,None,None,Picnic_Cooler,Mentos,36,18,18,17.73,9.1,8.63,1,1,566.42,961.18,,,,,,,0,,,,
196,17,201,1,17,No_context,None,None,Heat_Blower,Melon_Cutter,43,38,5,21.1,18.2,2.9,1,1,1083.13,1119.1,,,,,,,0,,,,
197,18,201,1,18,No_context,None,None,Mouse,Measuring_Tape,26,11,15,14.1,5.13,8.97,2,0,366.74,1086.21,,,,,,,0,,,,
198,19,201,1,19,No_context,None,None,Women_Hairblower,Sleeping_Bag,30,20,10,16.2,9.83,6.37,1,1,799.76,983.03,,,,,,,0,,,,
199,20,201,1,20,No_context,None,None,Kettle,Measuring_Tape,21,11,10,10.07,5.13,4.93,2,0,1166.39,1011.96,,,,,,,0,,,,
200,21,201,1,21,No_context,None,None,Body_Scale,Camping_Chair,23,37,-14,10.7,18.07,-7.37,2,1,299.92,1047.85,,,,,,,0,,,,
201,22,201,1,22,No_context,None,None,Coffee_Machine,Portable_Speaker,48,33,15,26.23,17.6,8.63,1,1,283.08,1118.35,,,,,,,0,,,,
202,23,201,1,23,No_context,None,None,Parker_Pen,Stove,35,44,-9,17.63,23.4,-5.77,1,0,399.82,1025.4,,,,,,,0,,,,
203,24,201,1,24,No_context,None,None,Beer,Wine,25,28,-3,12.03,15.5,-3.47,1,0,383.12,812.17,,,,,,,0,,,,
204,25,201,1,25,No_context,None,None,Wine,Box_Pig,28,40,-12,15.5,19,-3.5,1,0,299.66,944.81,,,,,,,0,,,,
205,26,201,1,26,No_context,None,None,Women_Hairblower,Chef_Knife,30,34,-4,16.2,17.6,-1.4,2,1,299.71,863.59,,,,,,,0,,,,
206,27,201,1,27,No_context,None,None,Head_Lamp,Thermos,15,45,-30,6.9,23.97,-17.07,2,1,399.88,1189.13,,,,,,,0,,,,
207,28,201,1,28,No_context,None,None,Measuring_Tape,Kinder,11,10,1,5.13,4.63,0.5,2,0,549.77,1194.82,,,,,,,0,,,,
208,29,201,1,29,No_context,None,None,Earphones,Melon_Cutter,31,38,-7,16.7,18.2,-1.5,2,1,266.38,1151.55,,,,,,,0,,,,
209,30,201,1,30,No_context,None,None,Fan,Portable_Speaker,19,33,-14,9.4,17.6,-8.2,2,1,316.5,945.15,,,,,,,0,,,,
210,31,201,1,31,No_context,None,None,Parker_Pen,Box_Pig,35,40,-5,17.63,19,-1.37,2,1,283.06,823.22,,,,,,,0,,,,
211,32,201,1,32,No_context,None,None,Toaster,Kettle,47,21,26,25.5,10.07,15.43,1,1,366.29,1195.43,,,,,,,0,,,,
212,33,201,1,33,No_context,None,None,Erasable_Board,Pasta_Strainer,14,13,1,6.53,5.83,0.7,2,0,399.85,1017.29,,,,,,,0,,,,
213,34,201,1,34,No_context,None,None,Tea_Box,Erasable_Board,24,14,10,11.43,6.53,4.9,1,1,549.75,1103.53,,,,,,,0,,,,
214,35,201,1,35,No_context,None,None,Parker_Pen,Toaster,35,47,-12,17.63,25.5,-7.87,2,1,333.33,1126.75,,,,,,,0,,,,
215,36,201,1,36,No_context,None,None,Erasable_Board,Tea_Box,14,24,-10,6.53,11.43,-4.9,2,1,316.89,1128.54,,,,,,,0,,,,
216,37,201,1,37,No_context,None,None,Picnic_Cooler,Coffee_Machine,36,48,-12,17.73,26.23,-8.5,2,1,249.72,936.1,,,,,,,0,,,,
217,38,201,1,38,No_context,None,None,Mouse,Picnic_Cooler,26,36,-10,14.1,17.73,-3.63,2,1,316.67,804.3,,,,,,,0,,,,
218,39,201,1,39,No_context,None,None,Parker_Pen,Box_Pig,35,40,-5,17.63,19,-1.37,2,1,266.59,1105.66,,,,,,,0,,,,
219,40,201,1,40,No_context,None,None,Women_Hairblower,Sleeping_Bag,30,20,10,16.2,9.83,6.37,1,1,333.32,1125.9,,,,,,,0,,,,
220,41,201,1,41,No_context,None,None,Mentos,Pringles,18,16,2,9.1,8.23,0.87,2,0,566.39,933.84,,,,,,,0,,,,
221,42,201,1,42,No_context,None,None,Picnic_Cooler,Body_Scale,36,23,13,17.73,10.7,7.03,1,1,333.13,885.14,,,,,,,0,,,,
222,43,201,1,43,No_context,None,None,Carpet_Candy,Beer,17,25,-8,8.57,12.03,-3.47,2,1,699.71,1032.07,,,,,,,0,,,,
223,44,201,1,44,No_context,None,None,Women_Hairblower,Body_Scale,30,23,7,16.2,10.7,5.5,1,1,299.51,1091.18,,,,,,,0,,,,
224,45,201,1,45,No_context,None,None,Flight_Pillow,Stove,12,44,-32,5.73,23.4,-17.67,2,1,466.33,1144.22,,,,,,,0,,,,
225,46,201,1,46,No_context,None,None,Erasable_Board,Portable_Speaker,14,33,-19,6.53,17.6,-11.07,2,1,366.62,1146.07,,,,,,,0,,,,
226,47,201,1,47,No_context,None,None,Penknife,Mouse,42,26,16,19.83,14.1,5.73,1,1,283.31,1106.14,,,,,,,0,,,,
227,48,201,1,48,No_context,None,None,Matress_Folded,Earphones,27,31,-4,15,16.7,-1.7,1,0,283.12,861.45,,,,,,,0,,,,
228,49,201,1,49,No_context,None,None,Kinder,Women_Hairblower,10,30,-20,4.63,16.2,-11.57,2,1,249.75,1184.39,,,,,,,0,,,,
229,50,201,1,50,No_context,None,None,Pasta_Strainer,Kettle,13,21,-8,5.83,10.07,-4.23,1,0,299.97,987.81,,,,,,,0,,,,
230,51,201,1,51,No_context,None,None,Women_Hairblower,Backpack,30,41,-11,16.2,19.37,-3.17,2,1,283.08,1189.95,,,,,,,0,,,,
231,52,201,1,52,No_context,None,None,Wine,Bottle,28,32,-4,15.5,17.07,-1.57,1,0,349.72,921.86,,,,,,,0,,,,
232,53,201,1,53,No_context,None,None,Women_Hairblower,Kinder,30,10,20,16.2,4.63,11.57,1,1,283.38,1009.38,,,,,,,0,,,,
233,54,201,1,54,No_context,None,None,Box_Pig,Iron,40,46,-6,19,24.47,-5.47,2,1,433.45,1049.57,,,,,,,0,,,,
234,55,201,1,55,No_context,None,None,Calculator,Table_Lamp,22,39,-17,10.33,18.8,-8.47,2,1,566.57,1159.14,,,,,,,0,,,,
235,56,201,1,56,No_context,None,None,Head_Lamp,Scale_Kitchen,15,29,-14,6.9,15.77,-8.87,2,1,266.18,1080.07,,,,,,,0,,,,
236,57,201,1,57,No_context,None,None,Women_Hairblower,Chef_Knife,30,34,-4,16.2,17.6,-1.4,2,1,366.62,1140.89,,,,,,,0,,,,
237,58,201,1,58,No_context,None,None,Chef_Knife,Matress_Folded,34,27,7,17.6,15,2.6,2,0,349.91,879.18,,,,,,,0,,,,
238,59,201,1,59,No_context,None,None,Camping_Chair,Body_Scale,37,23,14,18.07,10.7,7.37,1,1,433.3,881.23,,,,,,,0,,,,
239,60,201,1,60,No_context,None,None,Beer,Carpet_Candy,25,17,8,12.03,8.57,3.47,1,1,349.69,816.89,,,,,,,0,,,,
240,61,201,2,1,No_context,None,None,Body_Scale,Chef_Knife,23,34,-11,10.7,17.6,-6.9,2,1,349.96,871.04,,,,,,,0,,,,
241,62,201,2,2,No_context,None,None,Penknife,Parker_Pen,42,35,7,19.83,17.63,2.2,1,1,316.41,902.03,,,,,,,0,,,,
242,63,201,2,3,No_context,None,None,Stove,Flight_Pillow,44,12,32,23.4,5.73,17.67,1,1,316.44,906.06,,,,,,,0,,,,
243,64,201,2,4,No_context,None,None,Women_Hairblower,Body_Scale,30,23,7,16.2,10.7,5.5,1,1,349.71,922.01,,,,,,,0,,,,
244,65,201,2,5,No_context,None,None,Mentos,Scale_Kitchen,18,29,-11,9.1,15.77,-6.67,2,1,483.19,1140.79,,,,,,,0,,,,
245,66,201,2,6,No_context,None,None,Picnic_Cooler,Mentos,36,18,18,17.73,9.1,8.63,1,1,399.85,1038.55,,,,,,,0,,,,
246,67,201,2,7,No_context,None,None,Scale_Kitchen,Kettle,29,21,8,15.77,10.07,5.7,1,1,349.61,888.4,,,,,,,0,,,,
247,68,201,2,8,No_context,None,None,Scale_Kitchen,Kettle,29,21,8,15.77,10.07,5.7,1,1,382.92,845.46,,,,,,,0,,,,
248,69,201,2,9,No_context,None,None,Mouse,Penknife,26,42,-16,14.1,19.83,-5.73,2,1,599.98,1027.51,,,,,,,0,,,,
249,70,201,2,10,No_context,None,None,Erasable_Board,Portable_Speaker,14,33,-19,6.53,17.6,-11.07,2,1,433.42,947.88,,,,,,,0,,,,
250,71,201,2,11,No_context,None,None,Melon_Cutter,Scale_Kitchen,38,29,9,18.2,15.77,2.43,2,0,266.44,1172.56,,,,,,,0,,,,
251,72,201,2,12,No_context,None,None,Fan,Kettle,19,21,-2,9.4,10.07,-0.67,2,1,432.96,1172.93,,,,,,,0,,,,
252,73,201,2,13,No_context,None,None,Bottle,Fan,32,19,13,17.07,9.4,7.67,1,1,299.82,872.79,,,,,,,0,,,,
253,74,201,2,14,No_context,None,None,Parker_Pen,Toaster,35,47,-12,17.63,25.5,-7.87,2,1,300.03,1033.75,,,,,,,0,,,,
254,75,201,2,15,No_context,None,None,Portable_Speaker,Coffee_Machine,33,48,-15,17.6,26.23,-8.63,2,1,283.35,937.56,,,,,,,0,,,,
255,76,201,2,16,No_context,None,None,Erasable_Board,Pasta_Strainer,14,13,1,6.53,5.83,0.7,2,0,583.22,1032.42,,,,,,,0,,,,
256,77,201,2,17,No_context,None,None,Box_Pig,Matress_Folded,40,27,13,19,15,4,1,1,350,838.95,,,,,,,0,,,,
257,78,201,2,18,No_context,None,None,Picnic_Cooler,Coffee_Machine,36,48,-12,17.73,26.23,-8.5,2,1,283.29,936.87,,,,,,,0,,,,
258,79,201,2,19,No_context,None,None,Coffee_Machine,Tea_Box,48,24,24,26.23,11.43,14.8,1,1,316.29,1109.13,,,,,,,0,,,,
259,80,201,2,20,No_context,None,None,Picnic_Cooler,Mouse,36,26,10,17.73,14.1,3.63,1,1,383.15,1177.77,,,,,,,0,,,,
260,81,201,2,21,No_context,None,None,Battery,Mentos,9,18,-9,4,9.1,-5.1,2,1,316.73,905.41,,,,,,,0,,,,
261,82,201,2,22,No_context,None,None,Box_Pig,Iron,40,46,-6,19,24.47,-5.47,2,1,266.47,887.84,,,,,,,0,,,,
262,83,201,2,23,No_context,None,None,Bottle,Body_Scale,32,23,9,17.07,10.7,6.37,1,1,316.32,817.72,,,,,,,0,,,,
263,84,201,2,24,No_context,None,None,Measuring_Tape,Kettle,11,21,-10,5.13,10.07,-4.93,1,0,316.38,918.81,,,,,,,0,,,,
264,85,201,2,25,No_context,None,None,Thermos,Scale_Kitchen,45,29,16,23.97,15.77,8.2,2,0,1033.08,1008.76,,,,,,,0,,,,
265,86,201,2,26,No_context,None,None,Stove,Bottle,44,32,12,23.4,17.07,6.33,1,1,633.04,832.05,,,,,,,0,,,,
266,87,201,2,27,No_context,None,None,Portable_Speaker,Beer,33,25,8,17.6,12.03,5.57,2,0,1399.9,1076.99,,,,,,,0,,,,
267,88,201,2,28,No_context,None,None,Matress_Folded,Coffee_Machine,27,48,-21,15,26.23,-11.23,2,1,516.55,961.62,,,,,,,0,,,,
268,89,201,2,29,No_context,None,None,Kinder,Measuring_Tape,10,11,-1,4.63,5.13,-0.5,2,1,266.62,812.88,,,,,,,0,,,,
269,90,201,2,30,No_context,None,None,Head_Lamp,Scale_Kitchen,15,29,-14,6.9,15.77,-8.87,2,1,483.25,1004.15,,,,,,,0,,,,
270,91,201,2,31,No_context,None,None,Battery,Head_Lamp,9,15,-6,4,6.9,-2.9,2,1,1066.61,1018.27,,,,,,,0,,,,
271,92,201,2,32,No_context,None,None,Head_Lamp,Battery,15,9,6,6.9,4,2.9,1,1,333.21,912.07,,,,,,,0,,,,
272,93,201,2,33,No_context,None,None,Iron,Mentos,46,18,28,24.47,9.1,15.37,1,1,316.44,1178.64,,,,,,,0,,,,
273,94,201,2,34,No_context,None,None,Bottle,Body_Scale,32,23,9,17.07,10.7,6.37,1,1,266.33,849.1,,,,,,,0,,,,
274,95,201,2,35,No_context,None,None,Coffee_Machine,Matress_Folded,48,27,21,26.23,15,11.23,1,1,333.04,1047.46,,,,,,,0,,,,
275,96,201,2,36,No_context,None,None,Tea_Box,Coffee_Machine,24,48,-24,11.43,26.23,-14.8,2,1,349.79,1021.23,,,,,,,0,,,,
276,97,201,2,37,No_context,None,None,Mentos,Iron,18,46,-28,9.1,24.47,-15.37,2,1,366.64,878.51,,,,,,,0,,,,
277,98,201,2,38,No_context,None,None,Matress_Folded,Carpet_Candy,27,17,10,15,8.57,6.43,1,1,332.93,811.49,,,,,,,0,,,,
278,99,201,2,39,No_context,None,None,Beer,Portable_Speaker,25,33,-8,12.03,17.6,-5.57,1,0,266.49,1010.83,,,,,,,0,,,,
279,100,201,2,40,No_context,None,None,Box_Pig,Iron,40,46,-6,19,24.47,-5.47,2,1,333.4,818.89,,,,,,,0,,,,
280,101,201,2,41,No_context,None,None,Melon_Cutter,Scale_Kitchen,38,29,9,18.2,15.77,2.43,1,1,766.35,1089.03,,,,,,,0,,,,
281,102,201,2,42,No_context,None,None,Melon_Cutter,Earphones,38,31,7,18.2,16.7,1.5,1,1,310.52,948.87,,,,,,,0,,,,
282,103,201,2,43,No_context,None,None,Penknife,Parker_Pen,42,35,7,19.83,17.63,2.2,1,1,316.41,1082.8,,,,,,,0,,,,
283,104,201,2,44,No_context,None,None,Matress_Folded,Carpet_Candy,27,17,10,15,8.57,6.43,1,1,299.79,1180.83,,,,,,,0,,,,
284,105,201,2,45,No_context,None,None,Pasta_Strainer,Kettle,13,21,-8,5.83,10.07,-4.23,1,0,466.6,837.31,,,,,,,0,,,,
285,106,201,2,46,No_context,None,None,Matress_Folded,Box_Pig,27,40,-13,15,19,-4,2,1,382.89,852.43,,,,,,,0,,,,
286,107,201,2,47,No_context,None,None,Beer,Calculator,25,22,3,12.03,10.33,1.7,1,1,333.08,1113.75,,,,,,,0,,,,
287,108,201,2,48,No_context,None,None,Women_Hairblower,Backpack,30,41,-11,16.2,19.37,-3.17,2,1,366.7,1081.06,,,,,,,0,,,,
288,109,201,2,49,No_context,None,None,Mentos,Scale_Kitchen,18,29,-11,9.1,15.77,-6.67,2,1,316.25,819.52,,,,,,,0,,,,
289,110,201,2,50,No_context,None,None,Box_Pig,Wine,40,28,12,19,15.5,3.5,2,0,282.94,966.68,,,,,,,0,,,,
290,111,201,2,51,No_context,None,None,Fan,Portable_Speaker,19,33,-14,9.4,17.6,-8.2,2,1,249.83,963.61,,,,,,,0,,,,
291,112,201,2,52,No_context,None,None,Mentos,Pringles,18,16,2,9.1,8.23,0.87,2,0,316.61,801.87,,,,,,,0,,,,
292,113,201,2,53,No_context,None,None,Calculator,Table_Lamp,22,39,-17,10.33,18.8,-8.47,2,1,383.2,1093.18,,,,,,,0,,,,
293,114,201,2,54,No_context,None,None,Stove,Parker_Pen,44,35,9,23.4,17.63,5.77,2,0,316.47,910.46,,,,,,,0,,,,
294,115,201,2,55,No_context,None,None,Wine,Beer,28,25,3,15.5,12.03,3.47,2,0,266.4,892.93,,,,,,,0,,,,
295,116,201,2,56,No_context,None,None,Beer,Calculator,25,22,3,12.03,10.33,1.7,1,1,366.65,916.47,,,,,,,0,,,,
296,117,201,2,57,No_context,None,None,Battery,Mentos,9,18,-9,4,9.1,-5.1,2,1,299.83,1135.73,,,,,,,0,,,,
297,118,201,2,58,No_context,None,None,Bottle,Fan,32,19,13,17.07,9.4,7.67,1,1,349.96,854.05,,,,,,,0,,,,
298,119,201,2,59,No_context,None,None,Mouse,Measuring_Tape,26,11,15,14.1,5.13,8.97,2,0,333.15,1061.24,,,,,,,0,,,,
299,120,201,2,60,No_context,None,None,Thermos,Scale_Kitchen,45,29,16,23.97,15.77,8.2,2,0,333.1,1066.56,,,,,,,0,,,,
300,1,202,1,1,hh,High,High,Stove,Battery,19,33,-14,1.5,6.7,-5.2,2,1,1249.83,853.73,2,1,Camping_Burner,Penknife,Pan,Portable_Speaker,0,30,30,30,30
301,3,202,1,3,Hh,High,Low,Camping_Chair,Chocolate,34,30,4,7.8,5.7,2.1,2,0,766.44,1057.32,3,1,Calculator,Sushi_Kit,Fan,Vodka,0,30,30,0,0
302,4,202,1,4,ll,Low,Low,Chocolate,Table_Lamp,30,20,10,5.7,1.93,3.77,1,1,782.94,1085.55,2,1,Box_Pig,Fan,Fan,Wine,0,0,0,0,0
303,5,202,1,5,Hh,High,Low,White_Wine,Computer_Tray,29,15,14,5.53,0.77,4.77,1,1,949.25,1031.87,3,3,Sushi_Kit,Chef_Knife,Vodka,Wine,0,30,30,0,0
304,6,202,1,6,Hh,High,Low,Thermos,Battery,48,33,15,23.1,6.7,16.4,1,1,1016.57,1068.67,2,1,Sushi_Kit,Chef_Knife,Flight_Pillow,Vodka,0,30,30,0,0
305,7,202,1,7,Hl,Low,High,Chocolate,Table_Lamp,30,20,10,5.7,1.93,3.77,1,1,916.36,850.2,2,2,Vodka,Measuring_Tape,Penknife,Sushi_Kit,0,0,0,30,30
306,8,202,1,8,Hl,Low,High,Cake,White_Wine,38,29,9,10.03,5.53,4.5,1,1,882.99,1149.56,3,1,Box_Pig,Flight_Pillow,Popcorn_Machine,Camping_Burner,0,0,0,30,30
307,9,202,1,9,Hl,Low,High,Chocolate,Kettle,30,23,7,5.7,2.73,2.97,1,1,699.79,902.01,1,3,Measuring_Tape,Scale_Kitchen,Popcorn_Machine,Penknife,0,0,0,30,30
308,10,202,1,10,Hl,High,Low,Mentos,White_Wine,18,29,-11,1.47,5.53,-4.07,1,0,799.85,945.96,3,2,Penknife,Sushi_Kit,Measuring_Tape,Fan,0,30,30,0,0
309,12,202,1,12,Hl,High,Low,Gold_USB,Sleeping_Bag,32,37,-5,6.47,9.87,-3.4,1,0,816.49,1170.24,2,2,Calculator,Portable_Speaker,Vodka,Flight_Pillow,0,30,30,0,0
310,13,202,1,13,hh,High,High,Chocolate,Camping_Chair,30,34,-4,5.7,7.8,-2.1,1,0,766.39,1075.24,3,3,Sushi_Kit,Camping_Burner,Portable_Speaker,Sushi_Kit,0,30,30,30,30
311,14,202,1,14,Hl,High,Low,Stove,Battery,19,33,-14,1.5,6.7,-5.2,1,0,933.19,1093.56,3,1,Camping_Burner,Popcorn_Machine,Flight_Pillow,Measuring_Tape,0,30,30,0,0
312,15,202,1,15,hh,High,High,Chocolate,Table_Lamp,30,20,10,5.7,1.93,3.77,1,1,999.89,1074.86,2,3,Penknife,Calculator,Portable_Speaker,Calculator,0,30,30,30,30
313,16,202,1,16,hh,High,High,Shaving_Machine,Pizza,44,12,32,18.73,0.57,18.17,1,1,1083.03,1140.79,2,3,Calculator,Portable_Speaker,Camping_Burner,Popcorn_Machine,0,30,30,30,30
314,17,202,1,17,hh,High,High,White_Wine,Computer_Tray,29,15,14,5.53,0.77,4.77,2,0,866.45,1140.77,3,2,Portable_Speaker,Calculator,Portable_Speaker,Pan,0,30,30,30,30
315,18,202,1,18,hh,High,High,Shaving_Machine,Gold_USB,44,32,12,18.73,6.47,12.27,1,1,966.45,1041.61,1,3,Portable_Speaker,Penknife,Pan,Calculator,0,30,30,30,30
316,19,202,1,19,hh,High,High,White_Wine,Bag,29,45,-16,5.53,19.03,-13.5,2,1,849.9,948.29,2,2,Sushi_Kit,Camping_Burner,Sushi_Kit,Popcorn_Machine,0,30,30,30,30
317,20,202,1,20,Hl,High,Low,Body_Scale,Parker_Pen,27,40,-13,4.07,13.67,-9.6,1,0,983.09,871.17,2,1,Chef_Knife,Camping_Burner,Fan,Vodka,0,30,30,0,0
318,21,202,1,21,Hl,Low,High,Stormtrooper_USB,Parker_Pen,46,40,6,19.3,13.67,5.63,1,1,1149.72,1013.38,3,3,Flight_Pillow,Vodka,Calculator,Chef_Knife,0,0,0,30,30
319,22,202,1,22,hh,High,High,Bottle,Thermos,24,48,-24,2.97,23.1,-20.13,2,1,933.28,1081.21,2,3,Penknife,Camping_Burner,Calculator,Chef_Knife,0,30,30,30,30
320,23,202,1,23,Hh,High,Low,Mouse,Kettle,36,23,13,9.27,2.73,6.53,1,1,983.13,886.19,2,2,Sushi_Kit,Portable_Speaker,Fan,Wine,0,30,30,0,0
321,24,202,1,24,hh,High,High,Sleeping_Bag,Kettle,37,23,14,9.87,2.73,7.13,1,1,883.28,980.36,1,3,Chef_Knife,Camping_Burner,Sushi_Kit,Calculator,0,30,30,30,30
322,25,202,1,25,hh,High,High,Gold_USB,Stove,32,19,13,6.47,1.5,4.97,1,1,983.39,1194.05,2,2,Portable_Speaker,Chef_Knife,Portable_Speaker,Sushi_Kit,0,30,30,30,30
323,26,202,1,26,Hh,High,Low,Thermos,Bottle,48,24,24,23.1,2.97,20.13,1,1,783.04,964.42,2,2,Pan,Sushi_Kit,Measuring_Tape,Fan,0,30,30,0,0
324,27,202,1,27,Hl,Low,High,Camping_Chair,Kettle,34,23,11,7.8,2.73,5.07,2,0,1350.01,1185.62,2,3,Wine,Box_Pig,Popcorn_Machine,Chef_Knife,0,0,0,30,30
325,28,202,1,28,Hl,Low,High,Mouse,Mentos,36,18,18,9.27,1.47,7.8,2,0,1233.07,812.22,1,2,Box_Pig,Flashlight,Portable_Speaker,Pan,0,0,0,30,30
326,29,202,1,29,Hh,Low,High,Iron,Gold_USB,28,32,-4,5.43,6.47,-1.03,2,1,1016.52,1065,3,3,Flight_Pillow,Scale_Kitchen,Penknife,Pan,0,0,0,30,30
327,30,202,1,30,Hh,High,Low,Beer,Newton_Cradle,26,11,15,3.87,0.53,3.33,1,1,1133.32,1050.14,1,2,Chef_Knife,Popcorn_Machine,Fan,Wine,0,30,30,0,0
328,31,202,1,31,ll,Low,Low,Camping_Chair,Chocolate,34,30,4,7.8,5.7,2.1,2,0,699.75,1003.49,2,3,Vodka,Flight_Pillow,Scale_Kitchen,Vodka,0,0,0,0,0
329,32,202,1,32,Hl,Low,High,Bag,White_Wine,45,29,16,19.03,5.53,13.5,2,0,600.49,969.42,1,1,Wine,Flight_Pillow,Pan,Portable_Speaker,0,0,0,30,30
330,33,202,1,33,ll,Low,Low,Mentos,Heat_Blower,18,16,2,1.47,1,0.47,1,1,866.35,991.35,2,2,Flight_Pillow,Measuring_Tape,Box_Pig,Flight_Pillow,0,0,0,0,0
331,34,202,1,34,ll,Low,Low,Gold_USB,Kettle,32,23,9,6.47,2.73,3.73,1,1,616.39,999.57,1,2,Fan,Box_Pig,Flight_Pillow,Fan,0,0,0,0,0
332,36,202,1,36,ll,Low,Low,Cake,Tea_Box,38,43,-5,10.03,17.9,-7.87,2,1,566.44,1094.94,3,1,Scale_Kitchen,Measuring_Tape,Box_Pig,Measuring_Tape,0,0,0,0,0
333,37,202,1,37,Hh,Low,High,Whiskey,Shaving_Machine,35,44,-9,8.7,18.73,-10.03,2,1,849.83,800.03,2,3,Measuring_Tape,Box_Pig,Portable_Speaker,Pan,0,0,0,30,30
334,38,202,1,38,Hh,Low,High,Picnic_Cooler,Cake,31,38,-7,6.37,10.03,-3.67,2,1,666.52,1043.32,3,2,Flashlight,Measuring_Tape,Portable_Speaker,Calculator,0,0,0,30,30
335,39,202,1,39,ll,Low,Low,Bottle,Erasable_Board,24,14,10,2.97,0.73,2.23,1,1,1099.89,953.69,2,3,Flashlight,Vodka,Wine,Vodka,0,0,0,0,0
336,40,202,1,40,ll,Low,Low,Iron,Gold_USB,28,32,-4,5.43,6.47,-1.03,2,1,599.98,1107.29,3,3,Box_Pig,Flight_Pillow,Scale_Kitchen,Flight_Pillow,0,0,0,0,0
337,41,202,1,41,ll,Low,Low,Head_Lamp,Chocolate,41,30,11,16.5,5.7,10.8,2,0,566.29,869.03,3,1,Scale_Kitchen,Flight_Pillow,Flight_Pillow,Scale_Kitchen,0,0,0,0,0
338,42,202,1,42,hh,High,High,Heat_Blower,Mentos,16,18,-2,1,1.47,-0.47,2,1,883.34,1169.41,2,2,Portable_Speaker,Calculator,Penknife,Camping_Burner,0,30,30,30,30
339,43,202,1,43,ll,Low,Low,Bag,White_Wine,45,29,16,19.03,5.53,13.5,2,0,799.97,968.04,3,3,Scale_Kitchen,Fan,Box_Pig,Flight_Pillow,0,0,0,0,0
340,44,202,1,44,hh,High,High,Beer,Mouse,26,36,-10,3.87,9.27,-5.4,1,0,1283.02,933.93,2,1,Chef_Knife,Calculator,Pan,Calculator,0,30,30,30,30
341,45,202,1,45,Hh,High,Low,Iron,Toaster,28,25,3,5.43,3.73,1.7,1,1,1199.84,1005.26,1,3,Calculator,Camping_Burner,Box_Pig,Flight_Pillow,0,30,30,0,0
342,46,202,1,46,ll,Low,Low,Stormtrooper_USB,Mentos,46,18,28,19.3,1.47,17.83,1,1,566.4,925.54,1,2,Vodka,Scale_Kitchen,Scale_Kitchen,Wine,0,0,0,0,0
343,47,202,1,47,Hh,Low,High,Women_Hairblower,Toaster,22,25,-3,2.03,3.73,-1.7,1,0,683.28,1160.24,3,3,Flashlight,Wine,Sushi_Kit,Calculator,0,0,0,30,30
344,48,202,1,48,Hl,High,Low,Computer_Tray,Bag,15,45,-30,0.77,19.03,-18.27,2,1,866.45,830.46,1,3,Popcorn_Machine,Sushi_Kit,Wine,Vodka,0,30,30,0,0
345,49,202,1,49,ll,Low,Low,Melon_Cutter,Computer_Tray,9,15,-6,0,0.77,-0.77,2,1,866.49,949.29,3,2,Vodka,Fan,Flashlight,Measuring_Tape,0,0,0,0,0
346,50,202,1,50,hh,High,High,Whiskey,Earphones,35,47,-12,8.7,21.3,-12.6,2,1,899.75,927.21,2,2,Penknife,Popcorn_Machine,Pan,Penknife,0,30,30,30,30
347,51,202,1,51,Hh,High,Low,Kinder,Women_Hairblower,39,22,17,11.5,2.03,9.47,2,0,983.18,870.06,1,2,Camping_Burner,Penknife,Scale_Kitchen,Fan,0,30,30,0,0
348,52,202,1,52,Hh,High,Low,Mentos,Melon_Cutter,18,9,9,1.47,0,1.47,1,1,833.15,1186.41,2,1,Calculator,Sushi_Kit,Flight_Pillow,Scale_Kitchen,0,30,30,0,0
349,53,202,1,53,ll,Low,Low,Sleeping_Bag,Kettle,37,23,14,9.87,2.73,7.13,1,1,1049.93,953.23,3,2,Fan,Box_Pig,Box_Pig,Flight_Pillow,0,0,0,0,0
350,54,202,1,54,Hl,Low,High,Parker_Pen,Iron,40,28,12,13.67,5.43,8.23,2,0,966.6,1112.8,1,2,Measuring_Tape,Scale_Kitchen,Portable_Speaker,Camping_Burner,0,0,0,30,30
351,55,202,1,55,Hl,High,Low,Carpet_Candy,Erasable_Board,13,14,-1,0.73,0.73,0,1,0,983.03,929.12,2,1,Pan,Penknife,Wine,Flashlight,0,30,30,0,0
352,56,202,1,56,Hl,High,Low,Kettle,Gold_USB,23,32,-9,2.73,6.47,-3.73,2,1,1166.58,1171.72,3,3,Portable_Speaker,Penknife,Vodka,Measuring_Tape,0,30,30,0,0
353,57,202,1,57,Hl,Low,High,Pringles,Newton_Cradle,21,11,10,1.93,0.53,1.4,1,1,1049.84,1122.96,2,1,Flight_Pillow,Fan,Portable_Speaker,Camping_Burner,0,0,0,30,30
354,58,202,1,58,Hh,Low,High,Erasable_Board,Bottle,14,24,-10,0.73,2.97,-2.23,1,0,783.21,928.12,2,2,Flight_Pillow,Flashlight,Camping_Burner,Portable_Speaker,0,0,0,30,30
355,59,202,1,59,Hl,High,Low,Whiskey,Shaving_Machine,35,44,-9,8.7,18.73,-10.03,2,1,816.6,851.28,1,1,Popcorn_Machine,Camping_Burner,Flight_Pillow,Fan,0,30,30,0,0
356,60,202,1,60,Hl,Low,High,Tea_Box,Cake,43,38,5,17.9,10.03,7.87,2,0,883.09,1096.84,3,3,Measuring_Tape,Flashlight,Calculator,Sushi_Kit,0,0,0,30,30
357,61,202,1,61,Hl,Low,High,Bottle,Erasable_Board,24,14,10,2.97,0.73,2.23,1,1,1149.79,1184.51,1,2,Box_Pig,Scale_Kitchen,Sushi_Kit,Calculator,0,0,0,30,30
358,62,202,1,62,Hl,Low,High,Thermos,Battery,48,33,15,23.1,6.7,16.4,1,1,749.63,1043.48,3,3,Measuring_Tape,Flight_Pillow,Camping_Burner,Calculator,0,0,0,30,30
359,63,202,1,63,Hh,High,Low,Tea_Box,Cake,43,38,5,17.9,10.03,7.87,1,1,583.21,984.4,3,1,Pan,Popcorn_Machine,Scale_Kitchen,Flashlight,0,30,30,0,0
360,64,202,1,64,Hh,High,Low,Cake,White_Wine,38,29,9,10.03,5.53,4.5,1,1,966.51,924.19,3,3,Sushi_Kit,Calculator,Box_Pig,Wine,0,30,30,0,0
361,65,202,1,65,Hh,High,Low,Bag,White_Wine,45,29,16,19.03,5.53,13.5,1,1,983.12,1188.38,2,2,Camping_Burner,Penknife,Flight_Pillow,Box_Pig,0,30,30,0,0
362,66,202,1,66,Hh,Low,High,Melon_Cutter,Computer_Tray,9,15,-6,0,0.77,-0.77,1,0,983.18,1039.06,2,1,Measuring_Tape,Wine,Pan,Penknife,0,0,0,30,30
363,67,202,1,67,ll,Low,Low,Shaving_Machine,Gold_USB,44,32,12,18.73,6.47,12.27,1,1,883.18,986.06,2,2,Scale_Kitchen,Box_Pig,Box_Pig,Vodka,0,0,0,0,0
364,68,202,1,68,Hh,Low,High,Parker_Pen,Stormtrooper_USB,40,46,-6,13.67,19.3,-5.63,2,1,649.65,892.81,2,2,Measuring_Tape,Wine,Calculator,Camping_Burner,0,0,0,30,30
365,69,202,1,69,Hh,Low,High,Whiskey,Earphones,35,47,-12,8.7,21.3,-12.6,2,1,849.93,1019.95,2,3,Fan,Box_Pig,Penknife,Popcorn_Machine,0,0,0,30,30
366,70,202,1,70,Hl,High,Low,Mouse,Thermos,36,48,-12,9.27,23.1,-13.83,2,1,1133.21,965.61,3,1,Chef_Knife,Sushi_Kit,Wine,Measuring_Tape,0,30,30,0,0
367,71,202,1,71,hh,High,High,Parker_Pen,Body_Scale,40,27,13,13.67,4.07,9.6,2,0,1099.9,995.41,2,3,Portable_Speaker,Pan,Sushi_Kit,Popcorn_Machine,0,30,30,30,30
368,72,202,1,72,Hh,Low,High,Backpack,Toaster,17,25,-8,1,3.73,-2.73,1,0,1116.75,1115.75,2,1,Box_Pig,Measuring_Tape,Sushi_Kit,Penknife,0,0,0,30,30
369,73,202,1,73,Hl,High,Low,Erasable_Board,Battery,14,33,-19,0.73,6.7,-5.97,2,1,799.76,879.4,3,1,Pan,Penknife,Fan,Measuring_Tape,0,30,30,0,0
370,74,202,1,74,Hl,Low,High,Shaving_Machine,Gold_USB,44,32,12,18.73,6.47,12.27,2,0,783.03,975.58,2,3,Flight_Pillow,Scale_Kitchen,Calculator,Portable_Speaker,0,0,0,30,30
371,75,202,1,75,Hh,High,Low,Erasable_Board,Carpet_Candy,14,13,1,0.73,0.73,0,2,0,1266.36,905.43,3,3,Camping_Burner,Popcorn_Machine,Vodka,Flashlight,0,30,30,0,0
372,76,202,1,76,Hl,Low,High,Camping_Chair,Chocolate,34,30,4,7.8,5.7,2.1,2,0,666.61,908.4,1,1,Flashlight,Scale_Kitchen,Popcorn_Machine,Chef_Knife,0,0,0,30,30
373,77,202,1,77,Hl,High,Low,Parker_Pen,Stormtrooper_USB,40,46,-6,13.67,19.3,-5.63,2,1,566.55,813.45,3,3,Chef_Knife,Portable_Speaker,Wine,Box_Pig,0,30,30,0,0
374,78,202,1,78,Hh,High,Low,Gold_USB,Stove,32,19,13,6.47,1.5,4.97,1,1,1049.91,1198.78,2,3,Portable_Speaker,Calculator,Flashlight,Box_Pig,0,30,30,0,0
375,79,202,1,79,Hh,High,Low,Whiskey,Bottle,35,24,11,8.7,2.97,5.73,1,1,1133.38,839.79,2,1,Penknife,Camping_Burner,Scale_Kitchen,Box_Pig,0,30,30,0,0
376,80,202,1,80,ll,Low,Low,Pasta_Strainer,Chocolate,10,30,-20,0,5.7,-5.7,2,1,816.21,1003.53,3,2,Box_Pig,Wine,Flashlight,Measuring_Tape,0,0,0,0,0
377,81,202,1,81,Hh,Low,High,Toaster,Battery,25,33,-8,3.73,6.7,-2.97,2,1,916.46,1047.17,2,2,Box_Pig,Scale_Kitchen,Penknife,Popcorn_Machine,0,0,0,30,30
378,82,202,1,82,Hh,Low,High,Erasable_Board,Battery,14,33,-19,0.73,6.7,-5.97,2,1,883.11,1162.99,3,3,Scale_Kitchen,Flashlight,Calculator,Pan,0,0,0,30,30
379,83,202,1,83,ll,Low,Low,Mouse,Thermos,36,48,-12,9.27,23.1,-13.83,2,1,566.48,1120.81,3,3,Flight_Pillow,Box_Pig,Box_Pig,Wine,0,0,0,0,0
380,84,202,1,84,Hl,Low,High,Chocolate,Pasta_Strainer,30,10,20,5.7,0,5.7,1,1,1232.82,869.05,3,1,Fan,Flashlight,Portable_Speaker,Camping_Burner,0,0,0,30,30
381,85,202,1,85,Hl,High,Low,Whiskey,Coffee_Machine,35,42,-7,8.7,16.93,-8.23,1,0,1066.41,1058.33,1,2,Pan,Calculator,Flashlight,Box_Pig,0,30,30,0,0
382,86,202,1,86,Hh,Low,High,Body_Scale,Picnic_Cooler,27,31,-4,4.07,6.37,-2.3,1,0,1133.06,1171.82,1,3,Flight_Pillow,Box_Pig,Portable_Speaker,Sushi_Kit,0,0,0,30,30
383,87,202,1,87,Hl,Low,High,Whiskey,Bottle,35,24,11,8.7,2.97,5.73,1,1,766.47,885.69,1,3,Wine,Flight_Pillow,Pan,Sushi_Kit,0,0,0,30,30
384,88,202,1,88,Hh,Low,High,Kettle,Sleeping_Bag,23,37,-14,2.73,9.87,-7.13,2,1,1083.08,918.01,3,3,Wine,Measuring_Tape,Penknife,Popcorn_Machine,0,0,0,30,30
385,89,202,1,89,hh,High,High,Mouse,Kettle,36,23,13,9.27,2.73,6.53,1,1,1033.59,1069.87,3,2,Calculator,Sushi_Kit,Penknife,Pan,0,30,30,30,30
386,90,202,1,90,Hh,High,Low,Head_Lamp,Chocolate,41,30,11,16.5,5.7,10.8,2,0,716.59,1007.28,2,3,Pan,Popcorn_Machine,Vodka,Flight_Pillow,0,30,30,0,0
387,91,202,2,1,Hh,High,Low,White_Wine,Mentos,29,18,11,5.53,1.47,4.07,1,1,1033.08,1133.5,1,2,Camping_Burner,Pan,Scale_Kitchen,Flight_Pillow,0,30,30,0,0
388,92,202,2,2,hh,High,High,Mentos,Stormtrooper_USB,18,46,-28,1.47,19.3,-17.83,2,1,899.84,1084.18,3,2,Portable_Speaker,Popcorn_Machine,Calculator,Popcorn_Machine,0,30,30,30,30
389,93,202,2,3,Hl,High,Low,Toaster,Battery,25,33,-8,3.73,6.7,-2.97,2,1,783.29,802.56,2,1,Chef_Knife,Calculator,Fan,Scale_Kitchen,0,30,30,0,0
390,94,202,2,4,ll,Low,Low,Whiskey,Earphones,35,47,-12,8.7,21.3,-12.6,1,0,633.18,1125.17,3,3,Flashlight,Wine,Scale_Kitchen,Vodka,0,0,0,0,0
391,95,202,2,5,Hl,Low,High,Body_Scale,Backpack,27,17,10,4.07,1,3.07,1,1,799.83,1077.83,2,1,Measuring_Tape,Fan,Chef_Knife,Pan,0,0,0,30,30
392,96,202,2,6,Hh,High,Low,Sleeping_Bag,Gold_USB,37,32,5,9.87,6.47,3.4,2,0,983.29,1153.36,1,2,Chef_Knife,Penknife,Vodka,Wine,0,30,30,0,0
393,97,202,2,7,Hl,High,Low,Women_Hairblower,Kinder,22,39,-17,2.03,11.5,-9.47,2,1,1316.5,816.58,1,1,Calculator,Popcorn_Machine,Measuring_Tape,Flashlight,0,30,30,0,0
394,98,202,2,8,Hh,Low,High,Computer_Tray,Bag,15,45,-30,0.77,19.03,-18.27,2,1,1099.83,1030.73,2,3,Wine,Box_Pig,Camping_Burner,Calculator,0,0,0,30,30
395,99,202,2,9,hh,High,High,Thermos,Mouse,48,36,12,23.1,9.27,13.83,1,1,1033.04,842.74,1,2,Chef_Knife,Calculator,Sushi_Kit,Camping_Burner,0,30,30,30,30
396,100,202,2,10,Hl,Low,High,Mentos,Melon_Cutter,18,9,9,1.47,0,1.47,1,1,1083.13,1170,1,1,Scale_Kitchen,Measuring_Tape,Calculator,Popcorn_Machine,0,0,0,30,30
397,101,202,2,11,Hh,High,Low,Pringles,Newton_Cradle,21,11,10,1.93,0.53,1.4,1,1,1066.17,1071.64,3,1,Popcorn_Machine,Camping_Burner,Flashlight,Fan,0,30,30,0,0
398,102,202,2,12,Hh,Low,High,Heat_Blower,Mentos,16,18,-2,1,1.47,-0.47,2,1,999.74,829.96,3,1,Wine,Flashlight,Penknife,Camping_Burner,0,0,0,30,30
399,103,202,2,13,Hl,High,Low,Mentos,Stormtrooper_USB,18,46,-28,1.47,19.3,-17.83,2,1,683.15,875.59,3,1,Camping_Burner,Sushi_Kit,Scale_Kitchen,Wine,0,30,30,0,0
400,104,202,2,14,Hh,Low,High,Kettle,Gold_USB,23,32,-9,2.73,6.47,-3.73,2,1,916.46,1044.89,2,3,Box_Pig,Scale_Kitchen,Pan,Sushi_Kit,0,0,0,30,30
401,105,202,2,15,Hh,Low,High,Stove,Battery,19,33,-14,1.5,6.7,-5.2,2,1,983.03,825.92,3,3,Scale_Kitchen,Measuring_Tape,Portable_Speaker,Popcorn_Machine,0,0,0,30,30
402,106,202,2,16,Hh,Low,High,Mentos,Body_Scale,18,27,-9,1.47,4.07,-2.6,2,1,883.29,850.19,1,2,Fan,Box_Pig,Pan,Calculator,0,0,0,30,30
403,107,202,2,17,Hl,Low,High,Pringles,Stove,21,19,2,1.93,1.5,0.43,1,1,1066.52,1156.19,3,1,Wine,Flight_Pillow,Calculator,Sushi_Kit,0,0,0,30,30
404,108,202,2,18,Hh,High,Low,Shaving_Machine,Pizza,44,12,32,18.73,0.57,18.17,1,1,733.11,1080.75,1,2,Sushi_Kit,Chef_Knife,Box_Pig,Flashlight,0,30,30,0,0
405,109,202,2,19,Hl,Low,High,Gold_USB,Stove,32,19,13,6.47,1.5,4.97,1,1,866.52,950.04,3,1,Wine,Scale_Kitchen,Camping_Burner,Sushi_Kit,0,0,0,30,30
406,110,202,2,20,Hh,Low,High,Carpet_Candy,Pringles,13,21,-8,0.73,1.93,-1.2,1,0,1249.85,1017.1,3,2,Box_Pig,Wine,Chef_Knife,Portable_Speaker,0,0,0,30,30
407,111,202,2,21,ll,Low,Low,Pizza,Shaving_Machine,12,44,-32,0.57,18.73,-18.17,2,1,916.38,1032.4,2,2,Box_Pig,Flashlight,Wine,Measuring_Tape,0,0,0,0,0
408,112,202,2,22,hh,High,High,Tea_Box,Cake,43,38,5,17.9,10.03,7.87,2,0,733.2,1158.17,3,3,Popcorn_Machine,Camping_Burner,Sushi_Kit,Chef_Knife,0,30,30,30,30
409,113,202,2,23,Hl,High,Low,Women_Hairblower,Toaster,22,25,-3,2.03,3.73,-1.7,1,0,1016.45,970.32,1,1,Penknife,Sushi_Kit,Wine,Vodka,0,30,30,0,0
410,114,202,2,24,Hl,Low,High,Newton_Cradle,Pasta_Strainer,11,10,1,0.53,0,0.53,1,1,883.21,1081.57,1,3,Flight_Pillow,Scale_Kitchen,Calculator,Popcorn_Machine,0,0,0,30,30
411,115,202,2,25,Hl,Low,High,Coffee_Machine,Beer,42,26,16,16.93,3.87,13.07,2,0,983.17,993.4,1,2,Vodka,Box_Pig,Penknife,Portable_Speaker,0,0,0,30,30
412,116,202,2,26,Hh,High,Low,Camping_Chair,Body_Scale,34,27,7,7.8,4.07,3.73,2,0,1049.91,978.63,3,1,Calculator,Camping_Burner,Flight_Pillow,Flashlight,0,30,30,0,0
413,117,202,2,27,Hl,High,Low,Iron,Gold_USB,28,32,-4,5.43,6.47,-1.03,2,1,749.67,1057.23,3,2,Popcorn_Machine,Pan,Wine,Measuring_Tape,0,30,30,0,0
414,118,202,2,28,ll,Low,Low,Gold_USB,Stove,32,19,13,6.47,1.5,4.97,1,1,966.66,1062.5,1,2,Box_Pig,Measuring_Tape,Measuring_Tape,Vodka,0,0,0,0,0
415,119,202,2,29,ll,Low,Low,Thermos,Bottle,48,24,24,23.1,2.97,20.13,1,1,849.57,1079,1,3,Wine,Flashlight,Fan,Measuring_Tape,0,0,0,0,0
416,120,202,2,30,Hl,Low,High,Picnic_Cooler,Body_Scale,31,27,4,6.37,4.07,2.3,2,0,1000.07,826.77,3,2,Box_Pig,Flight_Pillow,Portable_Speaker,Chef_Knife,0,0,0,30,30
417,121,202,2,31,Hh,Low,High,Body_Scale,Parker_Pen,27,40,-13,4.07,13.67,-9.6,1,0,1266.38,819.68,2,2,Wine,Flashlight,Chef_Knife,Calculator,0,0,0,30,30
418,122,202,2,32,Hh,High,Low,Coffee_Machine,Whiskey,42,35,7,16.93,8.7,8.23,2,0,833.05,828.89,3,2,Penknife,Sushi_Kit,Scale_Kitchen,Flashlight,0,30,30,0,0
419,123,202,2,33,Hl,High,Low,Picnic_Cooler,Cake,31,38,-7,6.37,10.03,-3.67,2,1,799.84,1167.13,3,1,Penknife,Popcorn_Machine,Fan,Vodka,0,30,30,0,0
420,124,202,2,34,Hl,Low,High,Thermos,Bottle,48,24,24,23.1,2.97,20.13,1,1,966.59,981.22,3,2,Flight_Pillow,Fan,Camping_Burner,Chef_Knife,0,0,0,30,30
421,125,202,2,35,hh,High,High,Iron,Gold_USB,28,32,-4,5.43,6.47,-1.03,2,1,816.71,858.83,3,3,Sushi_Kit,Pan,Camping_Burner,Pan,0,30,30,30,30
422,126,202,2,36,Hl,High,Low,Heat_Blower,Mentos,16,18,-2,1,1.47,-0.47,2,1,866.37,855.89,1,2,Chef_Knife,Camping_Burner,Vodka,Measuring_Tape,0,30,30,0,0
423,127,202,2,37,Hl,Low,High,White_Wine,Computer_Tray,29,15,14,5.53,0.77,4.77,1,1,783.13,1031.52,1,1,Scale_Kitchen,Wine,Camping_Burner,Popcorn_Machine,0,0,0,30,30
424,128,202,2,38,Hh,Low,High,Mouse,Thermos,36,48,-12,9.27,23.1,-13.83,2,1,816.23,1133.85,1,1,Measuring_Tape,Flight_Pillow,Pan,Sushi_Kit,0,0,0,30,30
425,129,202,2,39,Hl,High,Low,Toaster,Iron,25,28,-3,3.73,5.43,-1.7,1,0,766.55,947.01,2,2,Portable_Speaker,Pan,Box_Pig,Measuring_Tape,0,30,30,0,0
426,130,202,2,40,Hl,High,Low,Backpack,Toaster,17,25,-8,1,3.73,-2.73,2,1,849.56,1109.62,3,3,Calculator,Portable_Speaker,Flashlight,Measuring_Tape,0,30,30,0,0
427,131,202,2,41,Hl,Low,High,Computer_Tray,Melon_Cutter,15,9,6,0.77,0,0.77,2,0,1049.64,940.83,1,3,Scale_Kitchen,Fan,Camping_Burner,Penknife,0,0,0,30,30
428,132,202,2,42,Hl,High,Low,Newton_Cradle,Beer,11,26,-15,0.53,3.87,-3.33,2,1,1100.1,932.76,3,1,Popcorn_Machine,Chef_Knife,Measuring_Tape,Wine,0,30,30,0,0
429,133,202,2,43,Hh,Low,High,Mentos,Mouse,18,36,-18,1.47,9.27,-7.8,2,1,966.68,1120.08,3,2,Fan,Scale_Kitchen,Penknife,Calculator,0,0,0,30,30
430,134,202,2,44,Hh,High,Low,Parker_Pen,Whiskey,40,35,5,13.67,8.7,4.97,2,0,766.61,1066.37,1,3,Calculator,Portable_Speaker,Measuring_Tape,Box_Pig,0,30,30,0,0
431,135,202,2,45,Hl,Low,High,Mouse,Kettle,36,23,13,9.27,2.73,6.53,1,1,1066.6,839.72,1,2,Fan,Flight_Pillow,Calculator,Portable_Speaker,0,0,0,30,30
432,136,202,2,46,Hh,High,Low,Stormtrooper_USB,Mentos,46,18,28,19.3,1.47,17.83,1,1,516.65,828.79,1,3,Penknife,Popcorn_Machine,Vodka,Flight_Pillow,0,30,30,0,0
433,137,202,2,47,ll,Low,Low,Iron,Parker_Pen,28,40,-12,5.43,13.67,-8.23,1,0,1016.44,879.81,3,1,Fan,Wine,Box_Pig,Vodka,0,0,0,0,0
434,138,202,2,48,ll,Low,Low,Stove,Battery,19,33,-14,1.5,6.7,-5.2,2,1,916.56,1045.69,2,3,Measuring_Tape,Flashlight,Box_Pig,Vodka,0,0,0,0,0
435,139,202,2,49,hh,High,High,Pasta_Strainer,Chocolate,10,30,-20,0,5.7,-5.7,2,1,699.91,1025.71,2,1,Sushi_Kit,Camping_Burner,Camping_Burner,Pan,0,30,30,30,30
436,140,202,2,50,hh,High,High,Women_Hairblower,Toaster,22,25,-3,2.03,3.73,-1.7,2,1,816.56,1159.97,2,1,Chef_Knife,Penknife,Penknife,Pan,0,30,30,30,30
437,141,202,2,51,ll,Low,Low,Newton_Cradle,Beer,11,26,-15,0.53,3.87,-3.33,2,1,1033.17,1078.85,2,3,Box_Pig,Flashlight,Flashlight,Vodka,0,0,0,0,0
438,142,202,2,52,ll,Low,Low,Beer,Mouse,26,36,-10,3.87,9.27,-5.4,1,0,999.86,917.46,2,1,Fan,Box_Pig,Scale_Kitchen,Box_Pig,0,0,0,0,0
439,143,202,2,53,hh,High,High,Erasable_Board,Bottle,14,24,-10,0.73,2.97,-2.23,2,1,1016.55,871.96,3,1,Calculator,Pan,Sushi_Kit,Portable_Speaker,0,30,30,30,30
440,144,202,2,54,hh,High,High,Computer_Tray,Melon_Cutter,15,9,6,0.77,0,0.77,2,0,949.69,1028.07,1,1,Penknife,Calculator,Popcorn_Machine,Calculator,0,30,30,30,30
441,145,202,2,55,Hh,High,Low,Pringles,Stove,21,19,2,1.93,1.5,0.43,1,1,849.69,923.65,3,1,Pan,Sushi_Kit,Box_Pig,Flight_Pillow,0,30,30,0,0
442,146,202,2,56,hh,High,High,Cake,White_Wine,38,29,9,10.03,5.53,4.5,1,1,866.54,927.76,1,1,Camping_Burner,Popcorn_Machine,Portable_Speaker,Popcorn_Machine,0,30,30,30,30
443,147,202,2,57,Hh,Low,High,Beer,Coffee_Machine,26,42,-16,3.87,16.93,-13.07,1,0,799.92,1133.16,3,1,Scale_Kitchen,Flashlight,Sushi_Kit,Penknife,0,0,0,30,30
444,148,202,2,58,ll,Low,Low,Women_Hairblower,Toaster,22,25,-3,2.03,3.73,-1.7,1,0,1049.72,1106.58,3,2,Wine,Measuring_Tape,Measuring_Tape,Vodka,0,0,0,0,0
445,149,202,2,59,Hh,Low,High,Kettle,Chocolate,23,30,-7,2.73,5.7,-2.97,2,1,783.1,1142.14,3,3,Flight_Pillow,Scale_Kitchen,Calculator,Chef_Knife,0,0,0,30,30
446,150,202,2,60,Hh,High,Low,Chocolate,Table_Lamp,30,20,10,5.7,1.93,3.77,1,1,849.8,1060.36,3,2,Sushi_Kit,Chef_Knife,Flight_Pillow,Box_Pig,0,30,30,0,0
447,151,202,2,61,Hl,High,Low,Whiskey,Parker_Pen,35,40,-5,8.7,13.67,-4.97,1,0,766.46,934.22,1,1,Calculator,Camping_Burner,Wine,Vodka,0,30,30,0,0
448,152,202,2,62,Hh,Low,High,Iron,Parker_Pen,28,40,-12,5.43,13.67,-8.23,2,1,1216.42,1173.39,2,1,Box_Pig,Measuring_Tape,Penknife,Popcorn_Machine,0,0,0,30,30
449,153,202,2,63,ll,Low,Low,Pasta_Strainer,Newton_Cradle,10,11,-1,0,0.53,-0.53,2,1,966.39,982.79,2,3,Scale_Kitchen,Box_Pig,Flashlight,Vodka,0,0,0,0,0
450,154,202,2,64,Hl,High,Low,Whiskey,Earphones,35,47,-12,8.7,21.3,-12.6,1,0,716.16,907.06,3,3,Portable_Speaker,Chef_Knife,Measuring_Tape,Scale_Kitchen,0,30,30,0,0
451,155,202,2,65,ll,Low,Low,Kettle,Mouse,23,36,-13,2.73,9.27,-6.53,2,1,1399.78,1155.13,2,2,Scale_Kitchen,Wine,Wine,Box_Pig,0,0,0,0,0
452,156,202,2,66,hh,High,High,Chocolate,Head_Lamp,30,41,-11,5.7,16.5,-10.8,1,0,1033.19,896.35,3,2,Pan,Sushi_Kit,Calculator,Sushi_Kit,0,30,30,30,30
453,157,202,2,67,hh,High,High,Mouse,Mentos,36,18,18,9.27,1.47,7.8,2,0,933.19,815.37,2,1,Calculator,Portable_Speaker,Portable_Speaker,Sushi_Kit,0,30,30,30,30
454,158,202,2,68,hh,High,High,Gold_USB,Kettle,32,23,9,6.47,2.73,3.73,1,1,1249.87,855.74,3,1,Calculator,Penknife,Sushi_Kit,Portable_Speaker,0,30,30,30,30
455,159,202,2,69,Hl,High,Low,Body_Scale,Thermos,27,48,-21,4.07,23.1,-19.03,2,1,933.24,1048.15,3,1,Calculator,Pan,Scale_Kitchen,Vodka,0,30,30,0,0
456,160,202,2,70,ll,Low,Low,Parker_Pen,Body_Scale,40,27,13,13.67,4.07,9.6,2,0,1066.65,803.93,3,1,Fan,Box_Pig,Flight_Pillow,Box_Pig,0,0,0,0,0
457,161,202,2,71,hh,High,High,Pasta_Strainer,Newton_Cradle,10,11,-1,0,0.53,-0.53,2,1,899.66,1124.44,3,3,Sushi_Kit,Portable_Speaker,Calculator,Pan,0,30,30,30,30
458,162,202,2,72,Hh,High,Low,Chocolate,Pasta_Strainer,30,10,20,5.7,0,5.7,1,1,999.81,900.67,2,1,Calculator,Sushi_Kit,Flight_Pillow,Flashlight,0,30,30,0,0
459,163,202,2,73,Hh,Low,High,Pringles,Earphones,21,47,-26,1.93,21.3,-19.37,2,1,816.46,1054.92,2,1,Flashlight,Wine,Sushi_Kit,Penknife,0,0,0,30,30
460,164,202,2,74,hh,High,High,Parker_Pen,Iron,40,28,12,13.67,5.43,8.23,2,0,1316.21,1049.3,3,1,Popcorn_Machine,Calculator,Penknife,Portable_Speaker,0,30,30,30,30
461,165,202,2,75,ll,Low,Low,Mentos,Mouse,18,36,-18,1.47,9.27,-7.8,2,1,866.28,1060.89,1,3,Flight_Pillow,Vodka,Flight_Pillow,Wine,0,0,0,0,0
462,166,202,2,76,ll,Low,Low,Cake,White_Wine,38,29,9,10.03,5.53,4.5,1,1,749.84,995.6,1,3,Box_Pig,Fan,Measuring_Tape,Wine,0,0,0,0,0
463,167,202,2,77,Hl,Low,High,Shaving_Machine,Pizza,44,12,32,18.73,0.57,18.17,1,1,1033.18,850.86,2,3,Flight_Pillow,Scale_Kitchen,Calculator,Camping_Burner,0,0,0,30,30
464,168,202,2,78,Hh,High,Low,Camping_Chair,Kettle,34,23,11,7.8,2.73,5.07,2,0,849.68,1068.36,3,3,Pan,Calculator,Fan,Wine,0,30,30,0,0
465,169,202,2,79,Hl,Low,High,Camping_Chair,Body_Scale,34,27,7,7.8,4.07,3.73,2,0,1233.2,1026.95,3,1,Wine,Measuring_Tape,Camping_Burner,Chef_Knife,0,0,0,30,30
466,170,202,2,80,Hh,High,Low,Newton_Cradle,Pasta_Strainer,11,10,1,0.53,0,0.53,1,1,949.82,885.99,2,3,Pan,Penknife,Fan,Vodka,0,30,30,0,0
467,171,202,2,81,Hh,Low,High,Beer,Mouse,26,36,-10,3.87,9.27,-5.4,1,0,1082.98,1022.58,3,1,Scale_Kitchen,Wine,Calculator,Penknife,0,0,0,30,30
468,172,202,2,82,Hh,Low,High,Pringles,White_Wine,21,29,-8,1.93,5.53,-3.6,2,1,1483.04,993.13,1,3,Measuring_Tape,Flashlight,Pan,Penknife,0,0,0,30,30
469,173,202,2,83,Hh,Low,High,Backpack,Body_Scale,17,27,-10,1,4.07,-3.07,2,1,866.44,1012.53,1,1,Flight_Pillow,Box_Pig,Penknife,Camping_Burner,0,0,0,30,30
470,174,202,2,84,Hl,Low,High,White_Wine,Pringles,29,21,8,5.53,1.93,3.6,1,1,716.39,1068.06,1,3,Box_Pig,Flight_Pillow,Portable_Speaker,Popcorn_Machine,0,0,0,30,30
471,175,202,2,85,Hl,High,Low,Beer,Mouse,26,36,-10,3.87,9.27,-5.4,1,0,749.63,1111.05,1,2,Chef_Knife,Sushi_Kit,Flight_Pillow,Fan,0,30,30,0,0
472,176,202,2,86,Hl,High,Low,Carpet_Candy,Pringles,13,21,-8,0.73,1.93,-1.2,1,0,1183.12,1001.51,2,1,Pan,Sushi_Kit,Measuring_Tape,Box_Pig,0,30,30,0,0
473,177,202,2,87,ll,Low,Low,Computer_Tray,White_Wine,15,29,-14,0.77,5.53,-4.77,2,1,599.87,955.76,1,3,Scale_Kitchen,Fan,Flight_Pillow,Flashlight,0,0,0,0,0
474,178,202,2,88,hh,High,High,Beer,Newton_Cradle,26,11,15,3.87,0.53,3.33,1,1,1183.06,972.1,3,1,Portable_Speaker,Popcorn_Machine,Chef_Knife,Sushi_Kit,0,30,30,30,30
475,179,202,2,89,Hl,High,Low,Chocolate,Head_Lamp,30,41,-11,5.7,16.5,-10.8,1,0,749.78,1187.02,2,1,Popcorn_Machine,Chef_Knife,Fan,Wine,0,30,30,0,0
476,180,202,2,90,Hh,Low,High,Parker_Pen,Stormtrooper_USB,40,46,-6,13.67,19.3,-5.63,2,1,683.08,919.6,2,1,Flashlight,Flight_Pillow,Portable_Speaker,Sushi_Kit,0,0,0,30,30
477,1,202,1,1,No_context,None,None,Kinder,Women_Hairblower,39,22,17,11.5,2.03,9.47,1,1,366.14,807.61,,,,,,,0,,,,
478,2,202,1,2,No_context,None,None,Thermos,Body_Scale,48,27,21,23.1,4.07,19.03,1,1,449.72,854.69,,,,,,,0,,,,
479,3,202,1,3,No_context,None,None,Stormtrooper_USB,Mentos,46,18,28,19.3,1.47,17.83,1,1,249.46,922.63,,,,,,,0,,,,
480,4,202,1,4,No_context,None,None,Mouse,Thermos,36,48,-12,9.27,23.1,-13.83,2,1,233.38,807.47,,,,,,,0,,,,
481,5,202,1,5,No_context,None,None,Kettle,Mouse,23,36,-13,2.73,9.27,-6.53,2,1,432.83,1103.68,,,,,,,0,,,,
482,6,202,1,6,No_context,None,None,Iron,Gold_USB,28,32,-4,5.43,6.47,-1.03,2,1,233.22,916.65,,,,,,,0,,,,
483,7,202,1,7,No_context,None,None,Toaster,Iron,25,28,-3,3.73,5.43,-1.7,1,0,300.05,1109.8,,,,,,,0,,,,
484,8,202,1,8,No_context,None,None,Parker_Pen,Body_Scale,40,27,13,13.67,4.07,9.6,2,0,199.6,1144.35,,,,,,,0,,,,
485,9,202,1,9,No_context,None,None,Chocolate,Camping_Chair,30,34,-4,5.7,7.8,-2.1,1,0,266.35,971,,,,,,,0,,,,
486,10,202,1,10,No_context,None,None,Camping_Chair,Chocolate,34,30,4,7.8,5.7,2.1,2,0,183.28,912.18,,,,,,,0,,,,
487,11,202,1,11,No_context,None,None,Mouse,Thermos,36,48,-12,9.27,23.1,-13.83,2,1,216.43,931.73,,,,,,,0,,,,
488,12,202,1,12,No_context,None,None,Battery,Stove,33,19,14,6.7,1.5,5.2,1,1,250.05,925.97,,,,,,,0,,,,
489,13,202,1,13,No_context,None,None,Beer,Coffee_Machine,26,42,-16,3.87,16.93,-13.07,1,0,266.77,921.97,,,,,,,0,,,,
490,14,202,1,14,No_context,None,None,Coffee_Machine,Beer,42,26,16,16.93,3.87,13.07,2,0,199.73,1022.67,,,,,,,0,,,,
491,15,202,1,15,No_context,None,None,Pasta_Strainer,Newton_Cradle,10,11,-1,0,0.53,-0.53,2,1,233.51,815.64,,,,,,,0,,,,
492,16,202,1,16,No_context,None,None,Camping_Chair,Kettle,34,23,11,7.8,2.73,5.07,2,0,299.95,1066.11,,,,,,,0,,,,
493,17,202,1,17,No_context,None,None,Pringles,Stove,21,19,2,1.93,1.5,0.43,1,1,316.56,1110.37,,,,,,,0,,,,
494,18,202,1,18,No_context,None,None,Bottle,Thermos,24,48,-24,2.97,23.1,-20.13,2,1,233.11,999.77,,,,,,,0,,,,
495,19,202,1,19,No_context,None,None,Melon_Cutter,Mentos,9,18,-9,0,1.47,-1.47,2,1,266.63,1046.48,,,,,,,0,,,,
496,20,202,1,20,No_context,None,None,Kettle,Gold_USB,23,32,-9,2.73,6.47,-3.73,2,1,266.5,961.41,,,,,,,0,,,,
497,21,202,1,21,No_context,None,None,White_Wine,Mentos,29,18,11,5.53,1.47,4.07,1,1,233.15,897.41,,,,,,,0,,,,
498,22,202,1,22,No_context,None,None,Thermos,Battery,48,33,15,23.1,6.7,16.4,1,1,299.8,893.1,,,,,,,0,,,,
499,23,202,1,23,No_context,None,None,Battery,Toaster,33,25,8,6.7,3.73,2.97,1,1,216.44,1130.93,,,,,,,0,,,,
500,24,202,1,24,No_context,None,None,Iron,Gold_USB,28,32,-4,5.43,6.47,-1.03,2,1,233.37,925.63,,,,,,,0,,,,
501,25,202,1,25,No_context,None,None,Chocolate,Table_Lamp,30,20,10,5.7,1.93,3.77,1,1,316.63,1102.19,,,,,,,0,,,,
502,26,202,1,26,No_context,None,None,Body_Scale,Picnic_Cooler,27,31,-4,4.07,6.37,-2.3,2,1,416.52,1064.28,,,,,,,0,,,,
503,27,202,1,27,No_context,None,None,Bag,Computer_Tray,45,15,30,19.03,0.77,18.27,1,1,732.94,996.26,,,,,,,0,,,,
504,28,202,1,28,No_context,None,None,Gold_USB,Shaving_Machine,32,44,-12,6.47,18.73,-12.27,2,1,249.91,1176.35,,,,,,,0,,,,
505,29,202,1,29,No_context,None,None,Kettle,Sleeping_Bag,23,37,-14,2.73,9.87,-7.13,2,1,249.85,864.81,,,,,,,0,,,,
506,30,202,1,30,No_context,None,None,Iron,Parker_Pen,28,40,-12,5.43,13.67,-8.23,1,0,391.76,938.08,,,,,,,0,,,,
507,31,202,1,31,No_context,None,None,Bottle,Whiskey,24,35,-11,2.97,8.7,-5.73,2,1,249.81,995.46,,,,,,,0,,,,
508,32,202,1,32,No_context,None,None,Whiskey,Earphones,35,47,-12,8.7,21.3,-12.6,1,0,282.96,1099.48,,,,,,,0,,,,
509,33,202,1,33,No_context,None,None,Camping_Chair,Kettle,34,23,11,7.8,2.73,5.07,2,0,266.48,1003.06,,,,,,,0,,,,
510,34,202,1,34,No_context,None,None,White_Wine,Computer_Tray,29,15,14,5.53,0.77,4.77,1,1,299.75,1164.54,,,,,,,0,,,,
511,35,202,1,35,No_context,None,None,Parker_Pen,Stormtrooper_USB,40,46,-6,13.67,19.3,-5.63,2,1,216.34,1086.12,,,,,,,0,,,,
512,36,202,1,36,No_context,None,None,Whiskey,Shaving_Machine,35,44,-9,8.7,18.73,-10.03,2,1,483.24,884.46,,,,,,,0,,,,
513,37,202,1,37,No_context,None,None,Beer,Newton_Cradle,26,11,15,3.87,0.53,3.33,1,1,266.52,861.37,,,,,,,0,,,,
514,38,202,1,38,No_context,None,None,Gold_USB,Sleeping_Bag,32,37,-5,6.47,9.87,-3.4,1,0,266.38,1197.06,,,,,,,0,,,,
515,39,202,1,39,No_context,None,None,Battery,Erasable_Board,33,14,19,6.7,0.73,5.97,1,1,249.72,855.93,,,,,,,0,,,,
516,40,202,1,40,No_context,None,None,Gold_USB,Shaving_Machine,32,44,-12,6.47,18.73,-12.27,2,1,0.1,1121.68,,,,,,,0,,,,
517,41,202,1,41,No_context,None,None,Sleeping_Bag,Gold_USB,37,32,5,9.87,6.47,3.4,2,0,199.9,1012.39,,,,,,,0,,,,
518,42,202,1,42,No_context,None,None,Iron,Parker_Pen,28,40,-12,5.43,13.67,-8.23,1,0,566.3,805.63,,,,,,,0,,,,
519,43,202,1,43,No_context,None,None,Head_Lamp,Chocolate,41,30,11,16.5,5.7,10.8,2,0,283.09,891.73,,,,,,,0,,,,
520,44,202,1,44,No_context,None,None,Newton_Cradle,Pringles,11,21,-10,0.53,1.93,-1.4,1,0,283.07,853.55,,,,,,,0,,,,
521,45,202,1,45,No_context,None,None,Whiskey,Earphones,35,47,-12,8.7,21.3,-12.6,1,0,266.85,944.39,,,,,,,0,,,,
522,46,202,1,46,No_context,None,None,Chocolate,Kettle,30,23,7,5.7,2.73,2.97,1,1,433.35,1110.97,,,,,,,0,,,,
523,47,202,1,47,No_context,None,None,Newton_Cradle,Beer,11,26,-15,0.53,3.87,-3.33,2,1,266.66,938.55,,,,,,,0,,,,
524,48,202,1,48,No_context,None,None,Shaving_Machine,Pizza,44,12,32,18.73,0.57,18.17,1,1,966.6,809.13,,,,,,,0,,,,
525,49,202,1,49,No_context,None,None,Bag,White_Wine,45,29,16,19.03,5.53,13.5,2,0,616.34,1006.32,,,,,,,0,,,,
526,50,202,1,50,No_context,None,None,Computer_Tray,Bag,15,45,-30,0.77,19.03,-18.27,2,1,249.74,881.72,,,,,,,0,,,,
527,51,202,1,51,No_context,None,None,Mouse,Kettle,36,23,13,9.27,2.73,6.53,1,1,266.55,956.74,,,,,,,0,,,,
528,52,202,1,52,No_context,None,None,Women_Hairblower,Toaster,22,25,-3,2.03,3.73,-1.7,1,0,649.58,1150.42,,,,,,,0,,,,
529,53,202,1,53,No_context,None,None,Women_Hairblower,Kinder,22,39,-17,2.03,11.5,-9.47,2,1,249.8,973.42,,,,,,,0,,,,
530,54,202,1,54,No_context,None,None,Camping_Chair,Body_Scale,34,27,7,7.8,4.07,3.73,2,0,216.44,1163.42,,,,,,,0,,,,
531,55,202,1,55,No_context,None,None,Mentos,Mouse,18,36,-18,1.47,9.27,-7.8,2,1,566.45,1091.04,,,,,,,0,,,,
532,57,202,1,57,No_context,None,None,Computer_Tray,White_Wine,15,29,-14,0.77,5.53,-4.77,2,1,316.14,991.7,,,,,,,0,,,,
533,58,202,1,58,No_context,None,None,Body_Scale,Thermos,27,48,-21,4.07,23.1,-19.03,2,1,366.32,871.16,,,,,,,0,,,,
534,59,202,1,59,No_context,None,None,Stove,Pringles,19,21,-2,1.5,1.93,-0.43,2,1,183.25,925.3,,,,,,,0,,,,
535,60,202,1,60,No_context,None,None,Chocolate,Pasta_Strainer,30,10,20,5.7,0,5.7,1,1,266.55,1117.99,,,,,,,0,,,,
536,61,202,2,1,No_context,None,None,Battery,Thermos,33,48,-15,6.7,23.1,-16.4,2,1,182.87,1034.29,,,,,,,0,,,,
537,62,202,2,2,No_context,None,None,Stormtrooper_USB,Parker_Pen,46,40,6,19.3,13.67,5.63,1,1,199.68,1053.05,,,,,,,0,,,,
538,63,202,2,3,No_context,None,None,Stove,Gold_USB,19,32,-13,1.5,6.47,-4.97,2,1,233.14,1097.05,,,,,,,0,,,,
539,64,202,2,4,No_context,None,None,Cake,Picnic_Cooler,38,31,7,10.03,6.37,3.67,1,1,249.86,966.06,,,,,,,0,,,,
540,65,202,2,5,No_context,None,None,Pringles,Carpet_Candy,21,13,8,1.93,0.73,1.2,2,0,333.18,878.97,,,,,,,0,,,,
541,66,202,2,6,No_context,None,None,Kettle,Chocolate,23,30,-7,2.73,5.7,-2.97,2,1,249.75,901.14,,,,,,,0,,,,
542,67,202,2,7,No_context,None,None,Cake,White_Wine,38,29,9,10.03,5.53,4.5,1,1,283.02,940.19,,,,,,,0,,,,
543,68,202,2,8,No_context,None,None,Mentos,Stormtrooper_USB,18,46,-28,1.47,19.3,-17.83,2,1,233.3,801.48,,,,,,,0,,,,
544,69,202,2,9,No_context,None,None,White_Wine,Pringles,29,21,8,5.53,1.93,3.6,1,1,249.8,872.03,,,,,,,0,,,,
545,70,202,2,10,No_context,None,None,Stove,Gold_USB,19,32,-13,1.5,6.47,-4.97,2,1,199.79,1080.02,,,,,,,0,,,,
546,71,202,2,11,No_context,None,None,Chocolate,Table_Lamp,30,20,10,5.7,1.93,3.77,1,1,233.17,1006.84,,,,,,,0,,,,
547,72,202,2,12,No_context,None,None,Backpack,Toaster,17,25,-8,1,3.73,-2.73,2,1,233.33,931.28,,,,,,,0,,,,
548,73,202,2,13,No_context,None,None,Picnic_Cooler,Cake,31,38,-7,6.37,10.03,-3.67,2,1,283.14,1161.8,,,,,,,0,,,,
549,74,202,2,14,No_context,None,None,Chocolate,Head_Lamp,30,41,-11,5.7,16.5,-10.8,1,0,266.58,1106.55,,,,,,,0,,,,
550,75,202,2,15,No_context,None,None,White_Wine,Mentos,29,18,11,5.53,1.47,4.07,1,1,333.26,933.82,,,,,,,0,,,,
551,76,202,2,16,No_context,None,None,Parker_Pen,Stormtrooper_USB,40,46,-6,13.67,19.3,-5.63,2,1,200,1038.12,,,,,,,0,,,,
552,77,202,2,17,No_context,None,None,Body_Scale,Parker_Pen,27,40,-13,4.07,13.67,-9.6,1,0,216.56,1123.61,,,,,,,0,,,,
553,78,202,2,18,No_context,None,None,Newton_Cradle,Pringles,11,21,-10,0.53,1.93,-1.4,2,1,283.08,906.82,,,,,,,0,,,,
554,79,202,2,19,No_context,None,None,Parker_Pen,Whiskey,40,35,5,13.67,8.7,4.97,2,0,266.29,1068.09,,,,,,,0,,,,
555,80,202,2,20,No_context,None,None,Parker_Pen,Stormtrooper_USB,40,46,-6,13.67,19.3,-5.63,2,1,201.38,956.29,,,,,,,0,,,,
556,81,202,2,21,No_context,None,None,Erasable_Board,Bottle,14,24,-10,0.73,2.97,-2.23,2,1,233.33,925.08,,,,,,,0,,,,
557,82,202,2,22,No_context,None,None,Coffee_Machine,Whiskey,42,35,7,16.93,8.7,8.23,2,0,266.68,1050.75,,,,,,,0,,,,
558,83,202,2,23,No_context,None,None,Carpet_Candy,Erasable_Board,13,14,-1,0.73,0.73,0,1,0,283.08,1169.55,,,,,,,0,,,,
559,84,202,2,24,No_context,None,None,Whiskey,Bottle,35,24,11,8.7,2.97,5.73,1,1,283.21,1116.27,,,,,,,0,,,,
560,85,202,2,25,No_context,None,None,White_Wine,Pringles,29,21,8,5.53,1.93,3.6,1,1,233.07,994.74,,,,,,,0,,,,
561,86,202,2,26,No_context,None,None,Earphones,Pringles,47,21,26,21.3,1.93,19.37,1,1,299.82,1042.02,,,,,,,0,,,,
562,87,202,2,27,No_context,None,None,Mentos,Heat_Blower,18,16,2,1.47,1,0.47,1,1,233.2,1072.85,,,,,,,0,,,,
563,88,202,2,28,No_context,None,None,Body_Scale,Camping_Chair,27,34,-7,4.07,7.8,-3.73,1,0,249.8,960.1,,,,,,,0,,,,
564,89,202,2,29,No_context,None,None,Tea_Box,Cake,43,38,5,17.9,10.03,7.87,1,1,299.83,872.95,,,,,,,0,,,,
565,90,202,2,30,No_context,None,None,Tea_Box,Cake,43,38,5,17.9,10.03,7.87,1,1,316.4,963.66,,,,,,,0,,,,
566,91,202,2,31,No_context,None,None,Body_Scale,Picnic_Cooler,27,31,-4,4.07,6.37,-2.3,1,0,383.33,805.51,,,,,,,0,,,,
567,92,202,2,32,No_context,None,None,Newton_Cradle,Pasta_Strainer,11,10,1,0.53,0,0.53,1,1,333.16,1129.27,,,,,,,0,,,,
568,93,202,2,33,No_context,None,None,Thermos,Bottle,48,24,24,23.1,2.97,20.13,1,1,266.51,851.88,,,,,,,0,,,,
569,94,202,2,34,No_context,None,None,Mouse,Beer,36,26,10,9.27,3.87,5.4,2,0,266.54,1080.77,,,,,,,0,,,,
570,95,202,2,35,No_context,None,None,Kettle,Sleeping_Bag,23,37,-14,2.73,9.87,-7.13,2,1,349.79,973.86,,,,,,,0,,,,
571,96,202,2,36,No_context,None,None,Battery,Stove,33,19,14,6.7,1.5,5.2,1,1,316.31,1066.29,,,,,,,0,,,,
572,97,202,2,37,No_context,None,None,Mentos,Heat_Blower,18,16,2,1.47,1,0.47,1,1,283.22,1012.54,,,,,,,0,,,,
573,98,202,2,38,No_context,None,None,Whiskey,Parker_Pen,35,40,-5,8.7,13.67,-4.97,1,0,249.84,1078.83,,,,,,,0,,,,
574,99,202,2,39,No_context,None,None,Shaving_Machine,Pizza,44,12,32,18.73,0.57,18.17,1,1,283.28,1168.76,,,,,,,0,,,,
575,100,202,2,40,No_context,None,None,Computer_Tray,Melon_Cutter,15,9,6,0.77,0,0.77,2,0,233.29,1199.89,,,,,,,0,,,,
576,101,202,2,41,No_context,None,None,Computer_Tray,Melon_Cutter,15,9,6,0.77,0,0.77,2,0,250.09,883.08,,,,,,,0,,,,
577,102,202,2,42,No_context,None,None,Erasable_Board,Battery,14,33,-19,0.73,6.7,-5.97,2,1,233.04,932.5,,,,,,,0,,,,
578,103,202,2,43,No_context,None,None,Coffee_Machine,Whiskey,42,35,7,16.93,8.7,8.23,2,0,233,893.4,,,,,,,0,,,,
579,104,202,2,44,No_context,None,None,Toaster,Battery,25,33,-8,3.73,6.7,-2.97,2,1,249.86,1075.24,,,,,,,0,,,,
580,105,202,2,45,No_context,None,None,Body_Scale,Backpack,27,17,10,4.07,1,3.07,1,1,266.44,917.52,,,,,,,0,,,,
581,106,202,2,46,No_context,None,None,Bottle,Erasable_Board,24,14,10,2.97,0.73,2.23,1,1,333.47,1086.65,,,,,,,0,,,,
582,107,202,2,47,No_context,None,None,Bag,White_Wine,45,29,16,19.03,5.53,13.5,2,0,283.23,959.18,,,,,,,0,,,,
583,108,202,2,48,No_context,None,None,Earphones,Pringles,47,21,26,21.3,1.93,19.37,1,1,266.47,1002.19,,,,,,,0,,,,
584,109,202,2,49,No_context,None,None,Erasable_Board,Carpet_Candy,14,13,1,0.73,0.73,0,2,0,199.83,949.78,,,,,,,0,,,,
585,110,202,2,50,No_context,None,None,Gold_USB,Kettle,32,23,9,6.47,2.73,3.73,1,1,766.39,998.9,,,,,,,0,,,,
586,111,202,2,51,No_context,None,None,Carpet_Candy,Pringles,13,21,-8,0.73,1.93,-1.2,1,0,233.27,811.99,,,,,,,0,,,,
587,112,202,2,52,No_context,None,None,Iron,Toaster,28,25,3,5.43,3.73,1.7,2,0,366.51,1071.52,,,,,,,0,,,,
588,113,202,2,53,No_context,None,None,Pasta_Strainer,Chocolate,10,30,-20,0,5.7,-5.7,2,1,249.78,1112.44,,,,,,,0,,,,
589,114,202,2,54,No_context,None,None,Body_Scale,Backpack,27,17,10,4.07,1,3.07,1,1,233.22,856.54,,,,,,,0,,,,
590,115,202,2,55,No_context,None,None,Mouse,Beer,36,26,10,9.27,3.87,5.4,2,0,216.7,963.81,,,,,,,0,,,,
591,116,202,2,56,No_context,None,None,Cake,White_Wine,38,29,9,10.03,5.53,4.5,1,1,216.36,807.41,,,,,,,0,,,,
592,117,202,2,57,No_context,None,None,Shaving_Machine,Whiskey,44,35,9,18.73,8.7,10.03,1,1,433.07,805.64,,,,,,,0,,,,
593,118,202,2,58,No_context,None,None,Toaster,Women_Hairblower,25,22,3,3.73,2.03,1.7,2,0,499.77,1103.93,,,,,,,0,,,,
594,119,202,2,59,No_context,None,None,Melon_Cutter,Mentos,9,18,-9,0,1.47,-1.47,2,1,216.6,1169.43,,,,,,,0,,,,
595,120,202,2,60,No_context,None,None,Toaster,Backpack,25,17,8,3.73,1,2.73,1,1,349.88,1011.5,,,,,,,0,,,,
596,1,205,1,1,No_context,None,None,Iron,Kettle,11,21,-10,1.7,3.57,-1.87,2,1,122.71,953.9,,,,,,,0,,,,
597,2,205,1,2,No_context,None,None,Thermos,Fan,18,46,-28,2.77,18.67,-15.9,2,1,30.02,944.85,,,,,,,0,,,,
598,3,205,1,3,No_context,None,None,Thermos,Earphones,18,36,-18,2.77,8.5,-5.73,2,1,0.12,838.21,,,,,,,0,,,,
599,4,205,1,4,No_context,None,None,Mentos,Kettle,29,21,8,6.1,3.57,2.53,1,1,281.09,979.64,,,,,,,0,,,,
600,5,205,1,5,No_context,None,None,Picnic_Cooler,Vodka,32,44,-12,7.2,16.5,-9.3,1,0,0.15,818.48,,,,,,,0,,,,
601,6,205,1,6,No_context,None,None,Earphones,Battery,36,48,-12,8.5,20.47,-11.97,2,1,232.38,842.27,,,,,,,0,,,,
602,7,205,1,7,No_context,None,None,Iron,Box_Pig,11,26,-15,1.7,4.83,-3.13,2,1,234.86,1103.95,,,,,,,0,,,,
603,8,205,1,8,No_context,None,None,Erasable_Board,Bottle,20,30,-10,3.47,6.37,-2.9,1,0,228.93,1145.18,,,,,,,0,,,,
604,9,205,1,9,No_context,None,None,Head_Lamp,Kettle,19,21,-2,2.93,3.57,-0.63,2,1,216.12,1156.01,,,,,,,0,,,,
605,10,205,1,10,No_context,None,None,Battery,Wine,48,24,24,20.47,4.17,16.3,1,1,242.09,1064.51,,,,,,,0,,,,
606,11,205,1,11,No_context,None,None,Penknife,Beer,23,37,-14,3.87,8.67,-4.8,2,1,187.09,935.86,,,,,,,0,,,,
607,12,205,1,12,No_context,None,None,Fan,Electric_Toothbrush,46,40,6,18.67,10.5,8.17,1,1,178.04,1109.77,,,,,,,0,,,,
608,13,205,1,13,No_context,None,None,Chocolate,Pan,25,22,3,4.4,3.8,0.6,2,0,255.34,895.92,,,,,,,0,,,,
609,14,205,1,14,No_context,None,None,Chocolate,Pan,25,22,3,4.4,3.8,0.6,2,0,281.77,1176.79,,,,,,,0,,,,
610,15,205,1,15,No_context,None,None,Flashlight,Carpet_Candy,31,38,-7,7.07,9.27,-2.2,2,1,204.13,976.23,,,,,,,0,,,,
611,16,205,1,16,No_context,None,None,Measuring_Tape,Scale_Kitchen,14,13,1,1.9,1.73,0.17,1,1,221.43,1132.76,,,,,,,0,,,,
612,17,205,1,17,No_context,None,None,White_Wine,Battery,27,48,-21,4.83,20.47,-15.63,2,1,265.97,1153.03,,,,,,,0,,,,
613,18,205,1,18,No_context,None,None,Chocolate,Whiskey,25,33,-8,4.4,7.57,-3.17,2,1,227.81,1008.75,,,,,,,0,,,,
614,19,205,1,19,No_context,None,None,Measuring_Tape,Whiskey,14,33,-19,1.9,7.57,-5.67,2,1,204.12,1189.18,,,,,,,0,,,,
615,20,205,1,20,No_context,None,None,Gold_USB,Thermos,16,18,-2,2.33,2.77,-0.43,2,1,274.72,995.78,,,,,,,0,,,,
616,21,205,1,21,No_context,None,None,Flashlight,White_Wine,31,27,4,7.07,4.83,2.23,2,0,335.19,1161.89,,,,,,,0,,,,
617,22,205,1,22,No_context,None,None,Battery,Whiskey,48,33,15,20.47,7.57,12.9,1,1,255.55,1125.08,,,,,,,0,,,,
618,23,205,1,23,No_context,None,None,Fan,Electric_Toothbrush,46,40,6,18.67,10.5,8.17,1,1,256.29,807.8,,,,,,,0,,,,
619,24,205,1,24,No_context,None,None,Newton_Cradle,Bottle,10,30,-20,1.67,6.37,-4.7,2,1,342.38,811.71,,,,,,,0,,,,
620,25,205,1,25,No_context,None,None,Whiskey,Head_Lamp,33,19,14,7.57,2.93,4.63,1,1,251.95,829.15,,,,,,,0,,,,
621,26,205,1,26,No_context,None,None,Wine,Pulse_Clock,24,35,-11,4.17,8.13,-3.97,2,1,268.44,998.39,,,,,,,0,,,,
622,27,205,1,27,No_context,None,None,Melon_Cutter,Matress_Folded,15,45,-30,2,18.53,-16.53,2,1,235.03,813.38,,,,,,,0,,,,
623,28,205,1,28,No_context,None,None,Popcorn_Machine,Picnic_Cooler,28,32,-4,5.17,7.2,-2.03,2,1,271.58,901.12,,,,,,,0,,,,
624,29,205,1,29,No_context,None,None,Kettle,Scale_Kitchen,21,13,8,3.57,1.73,1.83,1,1,296.48,1012.85,,,,,,,0,,,,
625,30,205,1,30,No_context,None,None,Chocolate,Pasta_Strainer,25,17,8,4.4,2.7,1.7,2,0,235.62,994.93,,,,,,,0,,,,
626,31,205,1,31,No_context,None,None,White_Wine,Pizza,27,34,-7,4.83,8.1,-3.27,2,1,269.94,954.68,,,,,,,0,,,,
627,32,205,1,32,No_context,None,None,Kettle,Mentos,21,29,-8,3.57,6.1,-2.53,2,1,394.03,990.01,,,,,,,0,,,,
628,33,205,1,33,No_context,None,None,Pasta_Strainer,White_Wine,17,27,-10,2.7,4.83,-2.13,1,0,278.53,1133.74,,,,,,,0,,,,
629,34,205,1,34,No_context,None,None,Pringles,Box_Pig,42,26,16,10.97,4.83,6.13,1,1,331.66,910.55,,,,,,,0,,,,
630,35,205,1,35,No_context,None,None,Popcorn_Machine,Picnic_Cooler,28,32,-4,5.17,7.2,-2.03,2,1,235.14,1028.69,,,,,,,0,,,,
631,36,205,1,36,No_context,None,None,Electric_Toothbrush,Fan,40,46,-6,10.5,18.67,-8.17,2,1,254.9,955.71,,,,,,,0,,,,
632,37,205,1,37,No_context,None,None,Carpet_Candy,Mentos,38,29,9,9.27,6.1,3.17,1,1,279.87,979.29,,,,,,,0,,,,
633,38,205,1,38,No_context,None,None,Mentos,Matress_Folded,29,45,-16,6.1,18.53,-12.43,2,1,255.22,1015.01,,,,,,,0,,,,
634,39,205,1,39,No_context,None,None,White_Wine,Electric_Toothbrush,27,40,-13,4.83,10.5,-5.67,2,1,263.78,1033.89,,,,,,,0,,,,
635,40,205,1,40,No_context,None,None,White_Wine,Pasta_Strainer,27,17,10,4.83,2.7,2.13,2,0,246.51,808.97,,,,,,,0,,,,
636,41,205,1,41,No_context,None,None,Kinder,Bottle,41,30,11,10.83,6.37,4.47,1,1,254.75,1023.39,,,,,,,0,,,,
637,42,205,1,42,No_context,None,None,Newton_Cradle,Iron,10,11,-1,1.67,1.7,-0.03,2,1,225.56,1094.13,,,,,,,0,,,,
638,43,205,1,43,No_context,None,None,Penknife,Beer,23,37,-14,3.87,8.67,-4.8,2,1,240.75,986.9,,,,,,,0,,,,
639,44,205,1,44,No_context,None,None,Pringles,Pulse_Clock,42,35,7,10.97,8.13,2.83,1,1,276.38,809.87,,,,,,,0,,,,
640,45,205,1,45,No_context,None,None,Tea_Box,Melon_Cutter,9,15,-6,1.57,2,-0.43,1,0,271.42,1071.41,,,,,,,0,,,,
641,46,205,1,46,No_context,None,None,Pulse_Clock,Camping_Chair,35,47,-12,8.13,19.2,-11.07,2,1,160.78,1190.46,,,,,,,0,,,,
642,47,205,1,47,No_context,None,None,Computer_Tray,Pan,39,22,17,9.87,3.8,6.07,1,1,327.09,1171.2,,,,,,,0,,,,
643,48,205,1,48,No_context,None,None,Bottle,Pizza,30,34,-4,6.37,8.1,-1.73,2,1,242.93,974.25,,,,,,,0,,,,
644,49,205,1,49,No_context,None,None,Wine,Measuring_Tape,24,14,10,4.17,1.9,2.27,2,0,291.24,1048.97,,,,,,,0,,,,
645,50,205,1,50,No_context,None,None,Chocolate,Pasta_Strainer,25,17,8,4.4,2.7,1.7,1,1,346.88,1109.06,,,,,,,0,,,,
646,51,205,1,51,No_context,None,None,Popcorn_Machine,Chocolate,28,25,3,5.17,4.4,0.77,2,0,205.47,1168.59,,,,,,,0,,,,
647,52,205,1,52,No_context,None,None,Carpet_Candy,Table_Lamp,38,43,-5,9.27,12.5,-3.23,1,0,233.43,1032.73,,,,,,,0,,,,
648,53,205,1,53,No_context,None,None,Penknife,Bottle,23,30,-7,3.87,6.37,-2.5,2,1,297.66,1152.66,,,,,,,0,,,,
649,54,205,1,54,No_context,None,None,Thermos,Earphones,18,36,-18,2.77,8.5,-5.73,2,1,281.06,1089.5,,,,,,,0,,,,
650,55,205,1,55,No_context,None,None,Pulse_Clock,Pringles,35,42,-7,8.13,10.97,-2.83,2,1,312.7,947.58,,,,,,,0,,,,
651,56,205,1,56,No_context,None,None,Bottle,Pizza,30,34,-4,6.37,8.1,-1.73,2,1,251.8,825.14,,,,,,,0,,,,
652,57,205,1,57,No_context,None,None,Table_Lamp,Carpet_Candy,43,38,5,12.5,9.27,3.23,2,0,240.57,919.94,,,,,,,0,,,,
653,58,205,1,58,No_context,None,None,Bottle,Erasable_Board,30,20,10,6.37,3.47,2.9,2,0,261.64,851.43,,,,,,,0,,,,
654,59,205,1,59,No_context,None,None,Box_Pig,Iron,26,11,15,4.83,1.7,3.13,1,1,343.5,1041.06,,,,,,,0,,,,
655,60,205,1,60,No_context,None,None,Head_Lamp,Kettle,19,21,-2,2.93,3.57,-0.63,2,1,257.47,884.89,,,,,,,0,,,,
656,61,205,2,1,No_context,None,None,Pulse_Clock,Camping_Chair,35,47,-12,8.13,19.2,-11.07,2,1,317.87,976.93,,,,,,,0,,,,
657,62,205,2,2,No_context,None,None,Whiskey,Head_Lamp,33,19,14,7.57,2.93,4.63,1,1,285.97,1000.8,,,,,,,0,,,,
658,63,205,2,3,No_context,None,None,Picnic_Cooler,Beer,32,37,-5,7.2,8.67,-1.47,1,0,296.32,1191.67,,,,,,,0,,,,
659,64,205,2,4,No_context,None,None,Pulse_Clock,Vodka,35,44,-9,8.13,16.5,-8.37,2,1,276.35,1160.03,,,,,,,0,,,,
660,65,205,2,5,No_context,None,None,Penknife,Picnic_Cooler,23,32,-9,3.87,7.2,-3.33,2,1,253.26,870.02,,,,,,,0,,,,
661,66,205,2,6,No_context,None,None,Wine,Pulse_Clock,24,35,-11,4.17,8.13,-3.97,2,1,294.67,999.58,,,,,,,0,,,,
662,67,205,2,7,No_context,None,None,Melon_Cutter,Mentos,15,29,-14,2,6.1,-4.1,2,1,782.06,1134.1,,,,,,,0,,,,
663,68,205,2,8,No_context,None,None,Vodka,Stove,44,12,32,16.5,1.7,14.8,1,1,268.86,845.64,,,,,,,0,,,,
664,69,205,2,9,No_context,None,None,Kettle,Iron,21,11,10,3.57,1.7,1.87,1,1,271.15,812.78,,,,,,,0,,,,
665,70,205,2,10,No_context,None,None,Flashlight,White_Wine,31,27,4,7.07,4.83,2.23,2,0,335.02,1186.94,,,,,,,0,,,,
666,71,205,2,11,No_context,None,None,Pizza,Penknife,34,23,11,8.1,3.87,4.23,1,1,297.92,848.79,,,,,,,0,,,,
667,72,205,2,12,No_context,None,None,Whiskey,Battery,33,48,-15,7.57,20.47,-12.9,2,1,297.76,891.62,,,,,,,0,,,,
668,73,205,2,13,No_context,None,None,Melon_Cutter,Tea_Box,15,9,6,2,1.57,0.43,1,1,290.21,877.94,,,,,,,0,,,,
669,74,205,2,14,No_context,None,None,Earphones,Battery,36,48,-12,8.5,20.47,-11.97,2,1,340.62,1006.36,,,,,,,0,,,,
670,75,205,2,15,No_context,None,None,Kinder,Bottle,41,30,11,10.83,6.37,4.47,1,1,277.79,1178.96,,,,,,,0,,,,
671,76,205,2,16,No_context,None,None,Thermos,Fan,18,46,-28,2.77,18.67,-15.9,2,1,238.84,1163.91,,,,,,,0,,,,
672,77,205,2,17,No_context,None,None,Electric_Toothbrush,Fan,40,46,-6,10.5,18.67,-8.17,2,1,449.31,896.12,,,,,,,0,,,,
673,78,205,2,18,No_context,None,None,Picnic_Cooler,Head_Lamp,32,19,13,7.2,2.93,4.27,1,1,368.3,1131.22,,,,,,,0,,,,
674,79,205,2,19,No_context,None,None,Carpet_Candy,Mentos,38,29,9,9.27,6.1,3.17,1,1,316.8,1198.3,,,,,,,0,,,,
675,80,205,2,20,No_context,None,None,Tea_Box,Thermos,9,18,-9,1.57,2.77,-1.2,2,1,253.03,1033.31,,,,,,,0,,,,
676,81,205,2,21,No_context,None,None,Wine,Measuring_Tape,24,14,10,4.17,1.9,2.27,2,0,335.39,1057.82,,,,,,,0,,,,
677,82,205,2,22,No_context,None,None,Pulse_Clock,Electric_Toothbrush,35,40,-5,8.13,10.5,-2.37,2,1,291.04,980.28,,,,,,,0,,,,
678,83,205,2,23,No_context,None,None,Box_Pig,Earphones,26,36,-10,4.83,8.5,-3.67,2,1,238.35,881.69,,,,,,,0,,,,
679,84,205,2,24,No_context,None,None,Computer_Tray,Pan,39,22,17,9.87,3.8,6.07,1,1,451.06,1172.51,,,,,,,0,,,,
680,85,205,2,25,No_context,None,None,Mentos,Thermos,29,18,11,6.1,2.77,3.33,1,1,341.56,940.71,,,,,,,0,,,,
681,86,205,2,26,No_context,None,None,Camping_Chair,Kettle,47,21,26,19.2,3.57,15.63,1,1,242.46,939.97,,,,,,,0,,,,
682,87,205,2,27,No_context,None,None,Mentos,Melon_Cutter,29,15,14,6.1,2,4.1,1,1,276.94,1161.37,,,,,,,0,,,,
683,88,205,2,28,No_context,None,None,Bottle,Newton_Cradle,30,10,20,6.37,1.67,4.7,1,1,288.13,1027.84,,,,,,,0,,,,
684,89,205,2,29,No_context,None,None,Scale_Kitchen,Measuring_Tape,13,14,-1,1.73,1.9,-0.17,2,1,270.49,1149.78,,,,,,,0,,,,
685,90,205,2,30,No_context,None,None,Pulse_Clock,Electric_Toothbrush,35,40,-5,8.13,10.5,-2.37,2,1,216.75,916.25,,,,,,,0,,,,
686,91,205,2,31,No_context,None,None,Electric_Toothbrush,Popcorn_Machine,40,28,12,10.5,5.17,5.33,1,1,296.67,871.7,,,,,,,0,,,,
687,92,205,2,32,No_context,None,None,Popcorn_Machine,Electric_Toothbrush,28,40,-12,5.17,10.5,-5.33,2,1,277.65,1022.06,,,,,,,0,,,,
688,93,205,2,33,No_context,None,None,Pringles,Box_Pig,42,26,16,10.97,4.83,6.13,1,1,294.02,1009.92,,,,,,,0,,,,
689,94,205,2,34,No_context,None,None,Whiskey,Measuring_Tape,33,14,19,7.57,1.9,5.67,1,1,335.31,848.75,,,,,,,0,,,,
690,95,205,2,35,No_context,None,None,Pizza,Penknife,34,23,11,8.1,3.87,4.23,1,1,301.04,1132.12,,,,,,,0,,,,
691,96,205,2,36,No_context,None,None,Bottle,Penknife,30,23,7,6.37,3.87,2.5,1,1,281.28,864.81,,,,,,,0,,,,
692,97,205,2,37,No_context,None,None,Vodka,Picnic_Cooler,44,32,12,16.5,7.2,9.3,1,1,518.78,821.48,,,,,,,0,,,,
693,98,205,2,38,No_context,None,None,White_Wine,Pizza,27,34,-7,4.83,8.1,-3.27,2,1,476.33,994.9,,,,,,,0,,,,
694,99,205,2,39,No_context,None,None,Mentos,Thermos,29,18,11,6.1,2.77,3.33,1,1,437.47,1075.92,,,,,,,0,,,,
695,100,205,2,40,No_context,None,None,Mentos,Matress_Folded,29,45,-16,6.1,18.53,-12.43,2,1,374.72,809.01,,,,,,,0,,,,
696,101,205,2,41,No_context,None,None,Newton_Cradle,Iron,10,11,-1,1.67,1.7,-0.03,1,0,274.03,949.94,,,,,,,0,,,,
697,102,205,2,42,No_context,None,None,Whiskey,Chocolate,33,25,8,7.57,4.4,3.17,1,1,263.51,974,,,,,,,0,,,,
698,103,205,2,43,No_context,None,None,Thermos,Gold_USB,18,16,2,2.77,2.33,0.43,2,0,226.56,979.18,,,,,,,0,,,,
699,104,205,2,44,No_context,None,None,Kettle,Camping_Chair,21,47,-26,3.57,19.2,-15.63,2,1,305.81,865.86,,,,,,,0,,,,
700,105,205,2,45,No_context,None,None,Pulse_Clock,Vodka,35,44,-9,8.13,16.5,-8.37,2,1,249.28,863.59,,,,,,,0,,,,
701,106,205,2,46,No_context,None,None,Earphones,Box_Pig,36,26,10,8.5,4.83,3.67,1,1,214.27,910.37,,,,,,,0,,,,
702,107,205,2,47,No_context,None,None,Beer,Picnic_Cooler,37,32,5,8.67,7.2,1.47,2,0,306.79,802.13,,,,,,,0,,,,
703,108,205,2,48,No_context,None,None,Battery,White_Wine,48,27,21,20.47,4.83,15.63,1,1,278.34,1154.36,,,,,,,0,,,,
704,109,205,2,49,No_context,None,None,Wine,Battery,24,48,-24,4.17,20.47,-16.3,2,1,262.77,887,,,,,,,0,,,,
705,110,205,2,50,No_context,None,None,Earphones,Penknife,36,23,13,8.5,3.87,4.63,1,1,413.57,825.38,,,,,,,0,,,,
706,111,205,2,51,No_context,None,None,Stove,Vodka,12,44,-32,1.7,16.5,-14.8,2,1,272.66,1149.85,,,,,,,0,,,,
707,112,205,2,52,No_context,None,None,Picnic_Cooler,Head_Lamp,32,19,13,7.2,2.93,4.27,1,1,329.05,884.51,,,,,,,0,,,,
708,113,205,2,53,No_context,None,None,Matress_Folded,Melon_Cutter,45,15,30,18.53,2,16.53,1,1,311.35,1116.75,,,,,,,0,,,,
709,114,205,2,54,No_context,None,None,White_Wine,Electric_Toothbrush,27,40,-13,4.83,10.5,-5.67,2,1,252.67,1049.69,,,,,,,0,,,,
710,115,205,2,55,No_context,None,None,Scale_Kitchen,Kettle,13,21,-8,1.73,3.57,-1.83,2,1,234.25,859.86,,,,,,,0,,,,
711,116,205,2,56,No_context,None,None,Penknife,Picnic_Cooler,23,32,-9,3.87,7.2,-3.33,2,1,854.61,852.87,,,,,,,0,,,,
712,117,205,2,57,No_context,None,None,Chocolate,Popcorn_Machine,25,28,-3,4.4,5.17,-0.77,1,0,294.74,934.29,,,,,,,0,,,,
713,118,205,2,58,No_context,None,None,Earphones,Penknife,36,23,13,8.5,3.87,4.63,1,1,263.21,1062.52,,,,,,,0,,,,
714,119,205,2,59,No_context,None,None,Tea_Box,Thermos,9,18,-9,1.57,2.77,-1.2,2,1,234.94,838.4,,,,,,,0,,,,
715,120,205,2,60,No_context,None,None,Flashlight,Carpet_Candy,31,38,-7,7.07,9.27,-2.2,2,1,243.86,1009.28,,,,,,,0,,,,
716,1,205,1,1,ll,Low,Low,Earphones,Battery,36,48,-12,8.5,20.47,-11.97,1,0,767.79,963.29,2,2,Cake,Parker_Pen,Chef_Knife,Pointer,0,1,1,1.5,0.9
717,2,205,1,2,Hh,Low,High,Wine,Battery,24,48,-24,4.17,20.47,-16.3,2,1,740.68,1019.8,2,2,Stormtrooper_USB,Pointer,Shaving_Machine,Backpack,0,0.933333333,0.9,23.96666667,24.36666667
718,3,205,1,3,Hl,Low,High,Camping_Chair,Pulse_Clock,47,35,12,19.2,8.13,11.07,1,1,773.75,906.45,2,2,Cake,Parker_Pen,Portable_Speaker,Body_Scale,0,1,1,27.06666667,22.06666667
719,4,205,1,4,ll,Low,Low,Penknife,Earphones,23,36,-13,3.87,8.5,-4.63,2,1,1138.37,893.58,3,3,Stormtrooper_USB,Sushi_Kit,Chef_Knife,Cake,0,0.933333333,1.166666667,1.5,1
720,5,205,1,5,Hl,Low,High,Vodka,Stove,44,12,32,16.5,1.7,14.8,1,1,876.27,1078.3,2,2,Camping_Burner,Stormtrooper_USB,Body_Scale,Backpack,0,1.433333333,0.933333333,22.06666667,24.36666667
721,6,205,1,6,Hh,Low,High,Thermos,Earphones,18,36,-18,2.77,8.5,-5.73,2,1,826.38,860.53,3,3,Stormtrooper_USB,Chef_Knife,Shaving_Machine,Backpack,0,0.933333333,1.5,23.96666667,24.36666667
722,7,205,1,7,hh,High,High,Bottle,Erasable_Board,30,20,10,6.37,3.47,2.9,2,0,904.86,946.44,2,3,Shaving_Machine,Calculator,Shaving_Machine,Flight_Pillow,0,23.96666667,28.2,23.96666667,24.23333333
723,8,205,1,8,Hl,Low,High,Fan,Electric_Toothbrush,46,40,6,18.67,10.5,8.17,1,1,863.19,1088.13,2,3,Chef_Knife,Stormtrooper_USB,Flight_Pillow,Shaving_Machine,0,1.5,0.933333333,24.23333333,23.96666667
724,9,205,1,9,Hl,Low,High,Fan,Thermos,46,18,28,18.67,2.77,15.9,1,1,1203.08,836.12,3,1,Stormtrooper_USB,Cake,Shaving_Machine,Flight_Pillow,0,0.933333333,1,23.96666667,24.23333333
725,10,205,1,10,Hl,High,Low,Pasta_Strainer,White_Wine,17,27,-10,2.7,4.83,-2.13,1,0,1054.67,802.4,2,1,Heat_Blower,Toaster,Coffee_Machine,Stormtrooper_USB,0,24.13333333,24.93333333,0.666666667,0.933333333
726,11,205,1,11,Hl,High,Low,Chocolate,Whiskey,25,33,-8,4.4,7.57,-3.17,2,1,805.77,839.75,1,1,Portable_Speaker,Toaster,Chef_Knife,Camping_Burner,0,27.06666667,24.93333333,1.5,1.433333333
727,12,205,1,12,Hl,Low,High,Vodka,Pulse_Clock,44,35,9,16.5,8.13,8.37,1,1,907.13,1137.23,2,1,Pointer,Sushi_Kit,Backpack,Body_Scale,0,0.9,1.166666667,24.36666667,22.06666667
728,13,205,1,13,hh,High,High,Battery,Wine,48,24,24,20.47,4.17,16.3,1,1,873.78,929.16,2,2,Body_Scale,Portable_Speaker,Portable_Speaker,Calculator,0,22.06666667,27.06666667,27.06666667,28.2
729,14,205,1,14,ll,Low,Low,Pulse_Clock,Camping_Chair,35,47,-12,8.13,19.2,-11.07,2,1,651.82,867.1,1,3,Camping_Burner,Coffee_Machine,Stormtrooper_USB,Sushi_Kit,0,1.433333333,0.666666667,0.933333333,1.166666667
